"Period","Group","Sender","datetime","Time","state.target","state.subjectid","state.rank","state.action","state.subperiodNumber","state.payoff","LOG_CONFIG.q1","LOG_CONFIG.mu","LOG_CONFIG.maxX","LOG_CONFIG.q2","LOG_CONFIG.ymax","LOG_CONFIG.period_length_s","LOG_CONFIG.period","LOG_CONFIG.payoffProjection","LOG_CONFIG.minX","LOG_CONFIG.ymin","LOG_CONFIG.step","LOG_CONFIG.hidePayoffs","LOG_CONFIG.groups","LOG_CONFIG.snap","LOG_CONFIG.payoffLabel","LOG_CONFIG.payoff","LOG_CONFIG.adjustAccuracy","LOG_CONFIG.actionHistory","LOG_CONFIG.num_sub_periods","temp.time"
1,1,"2","2016-04-14 15:41:58.909",1460673718909381120,0,"1",1.5,0,-1,0,0.66667,100,1.8,0.33333,200,90,1,TRUE,0,0,0.05,TRUE,"c(1, 7, 2, 8, 3, 9, 4, 10, 5, 11, 6, 12)",0,"A","unstable",0.01,TRUE,0,1460673718
1,1,"2","2016-04-14 15:41:58.909",1460673718909381120,0,"2",2.5,0,-1,0,0.66667,100,1.8,0.33333,200,90,1,TRUE,0,0,0.05,TRUE,"c(1, 7, 2, 8, 3, 9, 4, 10, 5, 11, 6, 12)",0,"A","unstable",0.01,TRUE,0,1460673718
1,1,"2","2016-04-14 15:41:58.909",1460673718909381120,0,"3",3.5,0,-1,0,0.66667,100,1.8,0.33333,200,90,1,TRUE,0,0,0.05,TRUE,"c(1, 7, 2, 8, 3, 9, 4, 10, 5, 11, 6, 12)",0,"A","unstable",0.01,TRUE,0,1460673718
1,1,"2","2016-04-14 15:41:58.909",1460673718909381120,0,"4",4.5,0,-1,0,0.66667,100,1.8,0.33333,200,90,1,TRUE,0,0,0.05,TRUE,"c(1, 7, 2, 8, 3, 9, 4, 10, 5, 11, 6, 12)",0,"A","unstable",0.01,TRUE,0,1460673718
1,1,"2","2016-04-14 15:41:58.909",1460673718909381120,0,"5",5.5,0,-1,0,0.66667,100,1.8,0.33333,200,90,1,TRUE,0,0,0.05,TRUE,"c(1, 7, 2, 8, 3, 9, 4, 10, 5, 11, 6, 12)",0,"A","unstable",0.01,TRUE,0,1460673718
1,1,"2","2016-04-14 15:41:58.909",1460673718909381120,0,"6",5.5,0,-1,0,0.66667,100,1.8,0.33333,200,90,1,TRUE,0,0,0.05,TRUE,"c(1, 7, 2, 8, 3, 9, 4, 10, 5, 11, 6, 12)",0,"A","unstable",0.01,TRUE,0,1460673718
1,1,"2","2016-04-14 15:41:59.095",1460673719094971392,0,"1",1.5,0,-1,0,0.66667,100,1.8,0.33333,200,90,1,TRUE,0,0,0.05,TRUE,"c(1, 7, 2, 8, 3, 9, 4, 10, 5, 11, 6, 12)",0,"A","unstable",0.01,TRUE,0,1460673719
1,1,"2","2016-04-14 15:41:59.095",1460673719094971392,0,"2",2.5,0,-1,0,0.66667,100,1.8,0.33333,200,90,1,TRUE,0,0,0.05,TRUE,"c(1, 7, 2, 8, 3, 9, 4, 10, 5, 11, 6, 12)",0,"A","unstable",0.01,TRUE,0,1460673719
1,1,"2","2016-04-14 15:41:59.095",1460673719094971392,0,"3",3.5,0,-1,0,0.66667,100,1.8,0.33333,200,90,1,TRUE,0,0,0.05,TRUE,"c(1, 7, 2, 8, 3, 9, 4, 10, 5, 11, 6, 12)",0,"A","unstable",0.01,TRUE,0,1460673719
1,1,"2","2016-04-14 15:41:59.095",1460673719094971392,0,"4",4.5,0,-1,0,0.66667,100,1.8,0.33333,200,90,1,TRUE,0,0,0.05,TRUE,"c(1, 7, 2, 8, 3, 9, 4, 10, 5, 11, 6, 12)",0,"A","unstable",0.01,TRUE,0,1460673719
1,1,"2","2016-04-14 15:41:59.095",1460673719094971392,0,"5",5.5,0,-1,0,0.66667,100,1.8,0.33333,200,90,1,TRUE,0,0,0.05,TRUE,"c(1, 7, 2, 8, 3, 9, 4, 10, 5, 11, 6, 12)",0,"A","unstable",0.01,TRUE,0,1460673719
1,1,"2","2016-04-14 15:41:59.095",1460673719094971392,0,"6",5.5,0,-1,0,0.66667,100,1.8,0.33333,200,90,1,TRUE,0,0,0.05,TRUE,"c(1, 7, 2, 8, 3, 9, 4, 10, 5, 11, 6, 12)",0,"A","unstable",0.01,TRUE,0,1460673719
1,1,"2","2016-04-14 15:42:00.088",1460673720087739136,0,"1",1.5,0,-1,0,0.66667,100,1.8,0.33333,200,90,1,TRUE,0,0,0.05,TRUE,"c(1, 7, 2, 8, 3, 9, 4, 10, 5, 11, 6, 12)",0,"A","unstable",0.01,TRUE,0,1460673720
1,1,"2","2016-04-14 15:42:00.088",1460673720087739136,0,"2",2.5,0,-1,0,0.66667,100,1.8,0.33333,200,90,1,TRUE,0,0,0.05,TRUE,"c(1, 7, 2, 8, 3, 9, 4, 10, 5, 11, 6, 12)",0,"A","unstable",0.01,TRUE,0,1460673720
1,1,"2","2016-04-14 15:42:00.088",1460673720087739136,0,"3",3.5,0,-1,0,0.66667,100,1.8,0.33333,200,90,1,TRUE,0,0,0.05,TRUE,"c(1, 7, 2, 8, 3, 9, 4, 10, 5, 11, 6, 12)",0,"A","unstable",0.01,TRUE,0,1460673720
1,1,"2","2016-04-14 15:42:00.088",1460673720087739136,0,"4",4.5,0,-1,0,0.66667,100,1.8,0.33333,200,90,1,TRUE,0,0,0.05,TRUE,"c(1, 7, 2, 8, 3, 9, 4, 10, 5, 11, 6, 12)",0,"A","unstable",0.01,TRUE,0,1460673720
1,1,"2","2016-04-14 15:42:00.088",1460673720087739136,0,"5",5.5,0,-1,0,0.66667,100,1.8,0.33333,200,90,1,TRUE,0,0,0.05,TRUE,"c(1, 7, 2, 8, 3, 9, 4, 10, 5, 11, 6, 12)",0,"A","unstable",0.01,TRUE,0,1460673720
1,1,"2","2016-04-14 15:42:00.088",1460673720087739136,0,"6",5.5,0,-1,0,0.66667,100,1.8,0.33333,200,90,1,TRUE,0,0,0.05,TRUE,"c(1, 7, 2, 8, 3, 9, 4, 10, 5, 11, 6, 12)",0,"A","unstable",0.01,TRUE,0,1460673720
1,1,"2","2016-04-14 15:42:01.083",1460673721083087104,0,"1",1.5,0,-1,0,0.66667,100,1.8,0.33333,200,90,1,TRUE,0,0,0.05,TRUE,"c(1, 7, 2, 8, 3, 9, 4, 10, 5, 11, 6, 12)",0,"A","unstable",0.01,TRUE,0,1460673721
1,1,"2","2016-04-14 15:42:01.083",1460673721083087104,0,"2",2.5,0,-1,0,0.66667,100,1.8,0.33333,200,90,1,TRUE,0,0,0.05,TRUE,"c(1, 7, 2, 8, 3, 9, 4, 10, 5, 11, 6, 12)",0,"A","unstable",0.01,TRUE,0,1460673721
1,1,"2","2016-04-14 15:42:01.083",1460673721083087104,0,"3",3.5,0,-1,0,0.66667,100,1.8,0.33333,200,90,1,TRUE,0,0,0.05,TRUE,"c(1, 7, 2, 8, 3, 9, 4, 10, 5, 11, 6, 12)",0,"A","unstable",0.01,TRUE,0,1460673721
1,1,"2","2016-04-14 15:42:01.083",1460673721083087104,0,"4",4.5,0,-1,0,0.66667,100,1.8,0.33333,200,90,1,TRUE,0,0,0.05,TRUE,"c(1, 7, 2, 8, 3, 9, 4, 10, 5, 11, 6, 12)",0,"A","unstable",0.01,TRUE,0,1460673721
1,1,"2","2016-04-14 15:42:01.083",1460673721083087104,0,"5",5.5,0,-1,0,0.66667,100,1.8,0.33333,200,90,1,TRUE,0,0,0.05,TRUE,"c(1, 7, 2, 8, 3, 9, 4, 10, 5, 11, 6, 12)",0,"A","unstable",0.01,TRUE,0,1460673721
1,1,"2","2016-04-14 15:42:01.083",1460673721083087104,0,"6",5.5,0,-1,0,0.66667,100,1.8,0.33333,200,90,1,TRUE,0,0,0.05,TRUE,"c(1, 7, 2, 8, 3, 9, 4, 10, 5, 11, 6, 12)",0,"A","unstable",0.01,TRUE,0,1460673721
1,1,"2","2016-04-14 15:42:02.081",1460673722080861184,0,"1",1.5,0,-1,0,0.66667,100,1.8,0.33333,200,90,1,TRUE,0,0,0.05,TRUE,"c(1, 7, 2, 8, 3, 9, 4, 10, 5, 11, 6, 12)",0,"A","unstable",0.01,TRUE,0,1460673722
1,1,"2","2016-04-14 15:42:02.081",1460673722080861184,0,"2",2.5,0,-1,0,0.66667,100,1.8,0.33333,200,90,1,TRUE,0,0,0.05,TRUE,"c(1, 7, 2, 8, 3, 9, 4, 10, 5, 11, 6, 12)",0,"A","unstable",0.01,TRUE,0,1460673722
1,1,"2","2016-04-14 15:42:02.081",1460673722080861184,0,"3",3.5,0,-1,0,0.66667,100,1.8,0.33333,200,90,1,TRUE,0,0,0.05,TRUE,"c(1, 7, 2, 8, 3, 9, 4, 10, 5, 11, 6, 12)",0,"A","unstable",0.01,TRUE,0,1460673722
1,1,"2","2016-04-14 15:42:02.081",1460673722080861184,0,"4",4.5,0,-1,0,0.66667,100,1.8,0.33333,200,90,1,TRUE,0,0,0.05,TRUE,"c(1, 7, 2, 8, 3, 9, 4, 10, 5, 11, 6, 12)",0,"A","unstable",0.01,TRUE,0,1460673722
1,1,"2","2016-04-14 15:42:02.081",1460673722080861184,0,"5",5.5,0,-1,0,0.66667,100,1.8,0.33333,200,90,1,TRUE,0,0,0.05,TRUE,"c(1, 7, 2, 8, 3, 9, 4, 10, 5, 11, 6, 12)",0,"A","unstable",0.01,TRUE,0,1460673722
1,1,"2","2016-04-14 15:42:02.081",1460673722080861184,0,"6",5.5,0,-1,0,0.66667,100,1.8,0.33333,200,90,1,TRUE,0,0,0.05,TRUE,"c(1, 7, 2, 8, 3, 9, 4, 10, 5, 11, 6, 12)",0,"A","unstable",0.01,TRUE,0,1460673722
1,1,"2","2016-04-14 15:42:03.074",1460673723074286848,0,"1",1,0,-1,0,0.66667,100,1.8,0.33333,200,90,1,TRUE,0,0,0.05,TRUE,"c(1, 7, 2, 8, 3, 9, 4, 10, 5, 11, 6, 12)",0,"A","unstable",0.01,TRUE,0,1460673723
1,1,"2","2016-04-14 15:42:03.074",1460673723074286848,0,"2",2.5,0,-1,0,0.66667,100,1.8,0.33333,200,90,1,TRUE,0,0,0.05,TRUE,"c(1, 7, 2, 8, 3, 9, 4, 10, 5, 11, 6, 12)",0,"A","unstable",0.01,TRUE,0,1460673723
1,1,"2","2016-04-14 15:42:03.074",1460673723074286848,0,"3",3.5,0,-1,0,0.66667,100,1.8,0.33333,200,90,1,TRUE,0,0,0.05,TRUE,"c(1, 7, 2, 8, 3, 9, 4, 10, 5, 11, 6, 12)",0,"A","unstable",0.01,TRUE,0,1460673723
1,1,"2","2016-04-14 15:42:03.074",1460673723074286848,0,"4",4.5,0,-1,0,0.66667,100,1.8,0.33333,200,90,1,TRUE,0,0,0.05,TRUE,"c(1, 7, 2, 8, 3, 9, 4, 10, 5, 11, 6, 12)",0,"A","unstable",0.01,TRUE,0,1460673723
1,1,"2","2016-04-14 15:42:03.074",1460673723074286848,0,"5",5.5,0,-1,0,0.66667,100,1.8,0.33333,200,90,1,TRUE,0,0,0.05,TRUE,"c(1, 7, 2, 8, 3, 9, 4, 10, 5, 11, 6, 12)",0,"A","unstable",0.01,TRUE,0,1460673723
1,1,"2","2016-04-14 15:42:03.074",1460673723074286848,0.04,"6",5.5,0.04,-1,0.666,0.66667,100,1.8,0.33333,200,90,1,TRUE,0,0,0.05,TRUE,"c(1, 7, 2, 8, 3, 9, 4, 10, 5, 11, 6, 12)",0,"A","unstable",0.01,TRUE,0,1460673723
1,1,"2","2016-04-14 15:42:04.067",1460673724067237888,0,"1",1,0,-1,0,0.66667,100,1.8,0.33333,200,90,1,TRUE,0,0,0.05,TRUE,"c(1, 7, 2, 8, 3, 9, 4, 10, 5, 11, 6, 12)",0,"A","unstable",0.01,TRUE,0,1460673724
1,1,"2","2016-04-14 15:42:04.067",1460673724067237888,0,"2",2,0,-1,0,0.66667,100,1.8,0.33333,200,90,1,TRUE,0,0,0.05,TRUE,"c(1, 7, 2, 8, 3, 9, 4, 10, 5, 11, 6, 12)",0,"A","unstable",0.01,TRUE,0,1460673724
1,1,"2","2016-04-14 15:42:04.067",1460673724067237888,0.19,"3",3,0.19,-1,13.5864,0.66667,100,1.8,0.33333,200,90,1,TRUE,0,0,0.05,TRUE,"c(1, 7, 2, 8, 3, 9, 4, 10, 5, 11, 6, 12)",0,"A","unstable",0.01,TRUE,0,1460673724
1,1,"2","2016-04-14 15:42:04.067",1460673724067237888,1.36,"4",4.5,0.36,-1,20.646,0.66667,100,1.8,0.33333,200,90,1,TRUE,0,0,0.05,TRUE,"c(1, 7, 2, 8, 3, 9, 4, 10, 5, 11, 6, 12)",0,"A","unstable",0.01,TRUE,0,1460673724
1,1,"2","2016-04-14 15:42:04.067",1460673724067237888,0,"5",5.5,0,-1,0,0.66667,100,1.8,0.33333,200,90,1,TRUE,0,0,0.05,TRUE,"c(1, 7, 2, 8, 3, 9, 4, 10, 5, 11, 6, 12)",0,"A","unstable",0.01,TRUE,0,1460673724
1,1,"2","2016-04-14 15:42:04.067",1460673724067237888,0.07,"6",5.5,0.07,-1,6.5268,0.66667,100,1.8,0.33333,200,90,1,TRUE,0,0,0.05,TRUE,"c(1, 7, 2, 8, 3, 9, 4, 10, 5, 11, 6, 12)",0,"A","unstable",0.01,TRUE,0,1460673724
1,1,"2","2016-04-14 15:42:05.065",1460673725064993280,0,"1",1,0,-1,0,0.66667,100,1.8,0.33333,200,90,1,TRUE,0,0,0.05,TRUE,"c(1, 7, 2, 8, 3, 9, 4, 10, 5, 11, 6, 12)",0,"A","unstable",0.01,TRUE,0,1460673725
1,1,"2","2016-04-14 15:42:05.065",1460673725064993280,0.54,"2",2,0.2,-1,23.31,0.66667,100,1.8,0.33333,200,90,1,TRUE,0,0,0.05,TRUE,"c(1, 7, 2, 8, 3, 9, 4, 10, 5, 11, 6, 12)",0,"A","unstable",0.01,TRUE,0,1460673725
1,1,"2","2016-04-14 15:42:05.065",1460673725064993280,0.28,"3",3,0.28,-1,22.3776,0.66667,100,1.8,0.33333,200,90,1,TRUE,0,0,0.05,TRUE,"c(1, 7, 2, 8, 3, 9, 4, 10, 5, 11, 6, 12)",0,"A","unstable",0.01,TRUE,0,1460673725
1,1,"2","2016-04-14 15:42:05.065",1460673725064993280,1.75,"4",4,0.86,-1,53.946,0.66667,100,1.8,0.33333,200,90,1,TRUE,0,0,0.05,TRUE,"c(1, 7, 2, 8, 3, 9, 4, 10, 5, 11, 6, 12)",0,"A","unstable",0.01,TRUE,0,1460673725
1,1,"2","2016-04-14 15:42:05.065",1460673725064993280,0,"5",5.5,0,-1,0,0.66667,100,1.8,0.33333,200,90,1,TRUE,0,0,0.05,TRUE,"c(1, 7, 2, 8, 3, 9, 4, 10, 5, 11, 6, 12)",0,"A","unstable",0.01,TRUE,0,1460673725
1,1,"2","2016-04-14 15:42:05.065",1460673725064993280,0.23,"6",5.5,0.23,-1,21.312,0.66667,100,1.8,0.33333,200,90,1,TRUE,0,0,0.05,TRUE,"c(1, 7, 2, 8, 3, 9, 4, 10, 5, 11, 6, 12)",0,"A","unstable",0.01,TRUE,0,1460673725
1,1,"2","2016-04-14 15:42:06.084",1460673726083511040,0.19,"1",1,0.14,-1,10.7892,0.66667,100,1.8,0.33333,200,90,1,TRUE,0,0,0.05,TRUE,"c(1, 7, 2, 8, 3, 9, 4, 10, 5, 11, 6, 12)",0,"A","unstable",0.01,TRUE,0,1460673726
1,1,"2","2016-04-14 15:42:06.084",1460673726083511040,1.77,"2",2,0.7,-1,59.94,0.66667,100,1.8,0.33333,200,90,1,TRUE,0,0,0.05,TRUE,"c(1, 7, 2, 8, 3, 9, 4, 10, 5, 11, 6, 12)",0,"A","unstable",0.01,TRUE,0,1460673726
1,1,"2","2016-04-14 15:42:06.084",1460673726083511040,0.36,"3",3,0.36,-1,36.2304,0.66667,100,1.8,0.33333,200,90,1,TRUE,0,0,0.05,TRUE,"c(1, 7, 2, 8, 3, 9, 4, 10, 5, 11, 6, 12)",0,"A","unstable",0.01,TRUE,0,1460673726
1,1,"2","2016-04-14 15:42:06.084",1460673726083511040,1.75,"4",4,1.36,-1,87.246,0.66667,100,1.8,0.33333,200,90,1,TRUE,0,0,0.05,TRUE,"c(1, 7, 2, 8, 3, 9, 4, 10, 5, 11, 6, 12)",0,"A","unstable",0.01,TRUE,0,1460673726
1,1,"2","2016-04-14 15:42:06.084",1460673726083511040,0,"5",5,0,-1,0,0.66667,100,1.8,0.33333,200,90,1,TRUE,0,0,0.05,TRUE,"c(1, 7, 2, 8, 3, 9, 4, 10, 5, 11, 6, 12)",0,"A","unstable",0.01,TRUE,0,1460673726
1,1,"2","2016-04-14 15:42:06.084",1460673726083511040,0.44,"6",6,0.44,-1,41.0256,0.66667,100,1.8,0.33333,200,90,1,TRUE,0,0,0.05,TRUE,"c(1, 7, 2, 8, 3, 9, 4, 10, 5, 11, 6, 12)",0,"A","unstable",0.01,TRUE,0,1460673726
1,1,"2","2016-04-14 15:42:07.087",1460673727087483136,0.43,"1",1,0.43,-1,49.1508,0.66667,100,1.8,0.33333,200,90,1,TRUE,0,0,0.05,TRUE,"c(1, 7, 2, 8, 3, 9, 4, 10, 5, 11, 6, 12)",0,"A","unstable",0.01,TRUE,0,1460673727
1,1,"2","2016-04-14 15:42:07.087",1460673727087483136,1.59,"2",2,1.2,-1,83.25,0.66667,100,1.8,0.33333,200,90,1,TRUE,0,0,0.05,TRUE,"c(1, 7, 2, 8, 3, 9, 4, 10, 5, 11, 6, 12)",0,"A","unstable",0.01,TRUE,0,1460673727
1,1,"2","2016-04-14 15:42:07.087",1460673727087483136,0.55,"3",3,0.55,-1,51.282,0.66667,100,1.8,0.33333,200,90,1,TRUE,0,0,0.05,TRUE,"c(1, 7, 2, 8, 3, 9, 4, 10, 5, 11, 6, 12)",0,"A","unstable",0.01,TRUE,0,1460673727
1,1,"2","2016-04-14 15:42:07.087",1460673727087483136,0.95,"4",4,1.06,-1,88.7112,0.66667,100,1.8,0.33333,200,90,1,TRUE,0,0,0.05,TRUE,"c(1, 7, 2, 8, 3, 9, 4, 10, 5, 11, 6, 12)",0,"A","unstable",0.01,TRUE,0,1460673727
1,1,"2","2016-04-14 15:42:07.087",1460673727087483136,0,"5",5,0,-1,0,0.66667,100,1.8,0.33333,200,90,1,TRUE,0,0,0.05,TRUE,"c(1, 7, 2, 8, 3, 9, 4, 10, 5, 11, 6, 12)",0,"A","unstable",0.01,TRUE,0,1460673727
1,1,"2","2016-04-14 15:42:07.087",1460673727087483136,0.48,"6",6,0.48,-1,51.1488,0.66667,100,1.8,0.33333,200,90,1,TRUE,0,0,0.05,TRUE,"c(1, 7, 2, 8, 3, 9, 4, 10, 5, 11, 6, 12)",0,"A","unstable",0.01,TRUE,0,1460673727
1,1,"2","2016-04-14 15:42:08.041",1460673728040942592,0.66,"1",1,0.61,-1,67.1328,0.66667,100,1.8,0.33333,200,90,1,TRUE,0,0,0.05,TRUE,"c(1, 7, 2, 8, 3, 9, 4, 10, 5, 11, 6, 12)",0,"A","unstable",0.01,TRUE,0,1460673728
1,1,"2","2016-04-14 15:42:08.041",1460673728040942592,1.02,"2",2,1.15,-1,87.912,0.66667,100,1.8,0.33333,200,90,1,TRUE,0,0,0.05,TRUE,"c(1, 7, 2, 8, 3, 9, 4, 10, 5, 11, 6, 12)",0,"A","unstable",0.01,TRUE,0,1460673728
1,1,"2","2016-04-14 15:42:08.041",1460673728040942592,0.75,"3",3,0.75,-1,68.9976,0.66667,100,1.8,0.33333,200,90,1,TRUE,0,0,0.05,TRUE,"c(1, 7, 2, 8, 3, 9, 4, 10, 5, 11, 6, 12)",0,"A","unstable",0.01,TRUE,0,1460673728
1,1,"2","2016-04-14 15:42:08.041",1460673728040942592,1.51,"4",4,1.39,-1,89.244,0.66667,100,1.8,0.33333,200,90,1,TRUE,0,0,0.05,TRUE,"c(1, 7, 2, 8, 3, 9, 4, 10, 5, 11, 6, 12)",0,"A","unstable",0.01,TRUE,0,1460673728
1,1,"2","2016-04-14 15:42:08.041",1460673728040942592,0,"5",5,0,-1,0,0.66667,100,1.8,0.33333,200,90,1,TRUE,0,0,0.05,TRUE,"c(1, 7, 2, 8, 3, 9, 4, 10, 5, 11, 6, 12)",0,"A","unstable",0.01,TRUE,0,1460673728
1,1,"2","2016-04-14 15:42:08.041",1460673728040942592,0.7,"6",6,0.7,-1,69.264,0.66667,100,1.8,0.33333,200,90,1,TRUE,0,0,0.05,TRUE,"c(1, 7, 2, 8, 3, 9, 4, 10, 5, 11, 6, 12)",0,"A","unstable",0.01,TRUE,0,1460673728
1,1,"2","2016-04-14 15:42:09.050",1460673729050466048,0.82,"1",1,0.82,-1,83.1168,0.66667,100,1.8,0.33333,200,90,1,TRUE,0,0,0.05,TRUE,"c(1, 7, 2, 8, 3, 9, 4, 10, 5, 11, 6, 12)",0,"A","unstable",0.01,TRUE,0,1460673729
1,1,"2","2016-04-14 15:42:09.050",1460673729050466048,1.37,"2",2,1.37,-1,91.242,0.66667,100,1.8,0.33333,200,90,1,TRUE,0,0,0.05,TRUE,"c(1, 7, 2, 8, 3, 9, 4, 10, 5, 11, 6, 12)",0,"A","unstable",0.01,TRUE,0,1460673729
1,1,"2","2016-04-14 15:42:09.050",1460673729050466048,0.71,"3",3,0.71,-1,87.5124,0.66667,100,1.8,0.33333,200,90,1,TRUE,0,0,0.05,TRUE,"c(1, 7, 2, 8, 3, 9, 4, 10, 5, 11, 6, 12)",0,"A","unstable",0.01,TRUE,0,1460673729
1,1,"2","2016-04-14 15:42:09.050",1460673729050466048,1.6,"4",4,1.39,-1,107.0928,0.66667,100,1.8,0.33333,200,90,1,TRUE,0,0,0.05,TRUE,"c(1, 7, 2, 8, 3, 9, 4, 10, 5, 11, 6, 12)",0,"A","unstable",0.01,TRUE,0,1460673729
1,1,"2","2016-04-14 15:42:09.050",1460673729050466048,0,"5",5,0,-1,0,0.66667,100,1.8,0.33333,200,90,1,TRUE,0,0,0.05,TRUE,"c(1, 7, 2, 8, 3, 9, 4, 10, 5, 11, 6, 12)",0,"A","unstable",0.01,TRUE,0,1460673729
1,1,"2","2016-04-14 15:42:09.050",1460673729050466048,0.88,"6",6,0.88,-1,80.1864,0.66667,100,1.8,0.33333,200,90,1,TRUE,0,0,0.05,TRUE,"c(1, 7, 2, 8, 3, 9, 4, 10, 5, 11, 6, 12)",0,"A","unstable",0.01,TRUE,0,1460673729
1,1,"2","2016-04-14 15:42:10.066",1460673730066062848,0.93,"1",1,0.93,-1,96.9696,0.66667,100,1.8,0.33333,200,90,1,TRUE,0,0,0.05,TRUE,"c(1, 7, 2, 8, 3, 9, 4, 10, 5, 11, 6, 12)",0,"A","unstable",0.01,TRUE,0,1460673730
1,1,"2","2016-04-14 15:42:10.066",1460673730066062848,1.44,"2",2,1.44,-1,95.904,0.66667,100,1.8,0.33333,200,90,1,TRUE,0,0,0.05,TRUE,"c(1, 7, 2, 8, 3, 9, 4, 10, 5, 11, 6, 12)",0,"A","unstable",0.01,TRUE,0,1460673730
1,1,"2","2016-04-14 15:42:10.066",1460673730066062848,0.71,"3",3,0.71,-1,85.1148,0.66667,100,1.8,0.33333,200,90,1,TRUE,0,0,0.05,TRUE,"c(1, 7, 2, 8, 3, 9, 4, 10, 5, 11, 6, 12)",0,"A","unstable",0.01,TRUE,0,1460673730
1,1,"2","2016-04-14 15:42:10.066",1460673730066062848,1.25,"4",4,1.26,-1,104.6952,0.66667,100,1.8,0.33333,200,90,1,TRUE,0,0,0.05,TRUE,"c(1, 7, 2, 8, 3, 9, 4, 10, 5, 11, 6, 12)",0,"A","unstable",0.01,TRUE,0,1460673730
1,1,"2","2016-04-14 15:42:10.066",1460673730066062848,0.12,"5",5,0.12,-1,15.984,0.66667,100,1.8,0.33333,200,90,1,TRUE,0,0,0.05,TRUE,"c(1, 7, 2, 8, 3, 9, 4, 10, 5, 11, 6, 12)",0,"A","unstable",0.01,TRUE,0,1460673730
1,1,"2","2016-04-14 15:42:10.066",1460673730066062848,0.93,"6",6,0.93,-1,85.7808,0.66667,100,1.8,0.33333,200,90,1,TRUE,0,0,0.05,TRUE,"c(1, 7, 2, 8, 3, 9, 4, 10, 5, 11, 6, 12)",0,"A","unstable",0.01,TRUE,0,1460673730
1,1,"2","2016-04-14 15:42:11.084",1460673731084340736,1.07,"1",1,1.07,-1,97.902,0.66667,100,1.8,0.33333,200,90,1,TRUE,0,0,0.05,TRUE,"c(1, 7, 2, 8, 3, 9, 4, 10, 5, 11, 6, 12)",0,"A","unstable",0.01,TRUE,0,1460673731
1,1,"2","2016-04-14 15:42:11.084",1460673731084340736,1.24,"2",2,1.24,-1,99.1008,0.66667,100,1.8,0.33333,200,90,1,TRUE,0,0,0.05,TRUE,"c(1, 7, 2, 8, 3, 9, 4, 10, 5, 11, 6, 12)",0,"A","unstable",0.01,TRUE,0,1460673731
1,1,"2","2016-04-14 15:42:11.084",1460673731084340736,0.78,"3",3,0.78,-1,92.3076,0.66667,100,1.8,0.33333,200,90,1,TRUE,0,0,0.05,TRUE,"c(1, 7, 2, 8, 3, 9, 4, 10, 5, 11, 6, 12)",0,"A","unstable",0.01,TRUE,0,1460673731
1,1,"2","2016-04-14 15:42:11.084",1460673731084340736,1.48,"4",4,1.46,-1,93.906,0.66667,100,1.8,0.33333,200,90,1,TRUE,0,0,0.05,TRUE,"c(1, 7, 2, 8, 3, 9, 4, 10, 5, 11, 6, 12)",0,"A","unstable",0.01,TRUE,0,1460673731
1,1,"2","2016-04-14 15:42:11.084",1460673731084340736,0.21,"5",5,0.21,-1,26.64,0.66667,100,1.8,0.33333,200,90,1,TRUE,0,0,0.05,TRUE,"c(1, 7, 2, 8, 3, 9, 4, 10, 5, 11, 6, 12)",0,"A","unstable",0.01,TRUE,0,1460673731
1,1,"2","2016-04-14 15:42:11.084",1460673731084340736,0.94,"6",6,0.94,-1,100.1664,0.66667,100,1.8,0.33333,200,90,1,TRUE,0,0,0.05,TRUE,"c(1, 7, 2, 8, 3, 9, 4, 10, 5, 11, 6, 12)",0,"A","unstable",0.01,TRUE,0,1460673731
1,1,"2","2016-04-14 15:42:12.014",1460673732013719296,1.24,"1",1,1.24,-1,114.6852,0.66667,100,1.8,0.33333,200,90,1,TRUE,0,0,0.05,TRUE,"c(1, 7, 2, 8, 3, 9, 4, 10, 5, 11, 6, 12)",0,"A","unstable",0.01,TRUE,0,1460673732
1,1,"2","2016-04-14 15:42:12.014",1460673732013719296,1.5,"2",2,1.5,-1,99.9,0.66667,100,1.8,0.33333,200,90,1,TRUE,0,0,0.05,TRUE,"c(1, 7, 2, 8, 3, 9, 4, 10, 5, 11, 6, 12)",0,"A","unstable",0.01,TRUE,0,1460673732
1,1,"2","2016-04-14 15:42:12.014",1460673732013719296,0.73,"3",3,0.73,-1,89.91,0.66667,100,1.8,0.33333,200,90,1,TRUE,0,0,0.05,TRUE,"c(1, 7, 2, 8, 3, 9, 4, 10, 5, 11, 6, 12)",0,"A","unstable",0.01,TRUE,0,1460673732
1,1,"2","2016-04-14 15:42:12.014",1460673732013719296,1.44,"4",4,1.44,-1,116.6832,0.66667,100,1.8,0.33333,200,90,1,TRUE,0,0,0.05,TRUE,"c(1, 7, 2, 8, 3, 9, 4, 10, 5, 11, 6, 12)",0,"A","unstable",0.01,TRUE,0,1460673732
1,1,"2","2016-04-14 15:42:12.014",1460673732013719296,0.28,"5",5,0.28,-1,35.964,0.66667,100,1.8,0.33333,200,90,1,TRUE,0,0,0.05,TRUE,"c(1, 7, 2, 8, 3, 9, 4, 10, 5, 11, 6, 12)",0,"A","unstable",0.01,TRUE,0,1460673732
1,1,"2","2016-04-14 15:42:12.014",1460673732013719296,1.01,"6",6,1.01,-1,105.4944,0.66667,100,1.8,0.33333,200,90,1,TRUE,0,0,0.05,TRUE,"c(1, 7, 2, 8, 3, 9, 4, 10, 5, 11, 6, 12)",0,"A","unstable",0.01,TRUE,0,1460673732
1,1,"2","2016-04-14 15:42:13.063",1460673733062777600,1.34,"1",1,1.34,-1,88.578,0.66667,100,1.8,0.33333,200,90,1,TRUE,0,0,0.05,TRUE,"c(1, 7, 2, 8, 3, 9, 4, 10, 5, 11, 6, 12)",0,"A","unstable",0.01,TRUE,0,1460673733
1,1,"2","2016-04-14 15:42:13.063",1460673733062777600,1.27,"2",2,1.27,-1,101.4984,0.66667,100,1.8,0.33333,200,90,1,TRUE,0,0,0.05,TRUE,"c(1, 7, 2, 8, 3, 9, 4, 10, 5, 11, 6, 12)",0,"A","unstable",0.01,TRUE,0,1460673733
1,1,"2","2016-04-14 15:42:13.063",1460673733062777600,0.71,"3",3,0.71,-1,86.3136,0.66667,100,1.8,0.33333,200,90,1,TRUE,0,0,0.05,TRUE,"c(1, 7, 2, 8, 3, 9, 4, 10, 5, 11, 6, 12)",0,"A","unstable",0.01,TRUE,0,1460673733
1,1,"2","2016-04-14 15:42:13.063",1460673733062777600,1.17,"4",4,1.17,-1,125.7408,0.66667,100,1.8,0.33333,200,90,1,TRUE,0,0,0.05,TRUE,"c(1, 7, 2, 8, 3, 9, 4, 10, 5, 11, 6, 12)",0,"A","unstable",0.01,TRUE,0,1460673733
1,1,"2","2016-04-14 15:42:13.063",1460673733062777600,0.39,"5",5,0.39,-1,49.284,0.66667,100,1.8,0.33333,200,90,1,TRUE,0,0,0.05,TRUE,"c(1, 7, 2, 8, 3, 9, 4, 10, 5, 11, 6, 12)",0,"A","unstable",0.01,TRUE,0,1460673733
1,1,"2","2016-04-14 15:42:13.063",1460673733062777600,1.22,"6",6,1.22,-1,113.7528,0.66667,100,1.8,0.33333,200,90,1,TRUE,0,0,0.05,TRUE,"c(1, 7, 2, 8, 3, 9, 4, 10, 5, 11, 6, 12)",0,"A","unstable",0.01,TRUE,0,1460673733
1,1,"2","2016-04-14 15:42:14.083",1460673734083248896,1.39,"1",1,1.39,-1,91.242,0.66667,100,1.8,0.33333,200,90,1,TRUE,0,0,0.05,TRUE,"c(1, 7, 2, 8, 3, 9, 4, 10, 5, 11, 6, 12)",0,"A","unstable",0.01,TRUE,0,1460673734
1,1,"2","2016-04-14 15:42:14.083",1460673734083248896,1.33,"2",2,1.33,-1,106.2936,0.66667,100,1.8,0.33333,200,90,1,TRUE,0,0,0.05,TRUE,"c(1, 7, 2, 8, 3, 9, 4, 10, 5, 11, 6, 12)",0,"A","unstable",0.01,TRUE,0,1460673734
1,1,"2","2016-04-14 15:42:14.083",1460673734083248896,0.67,"3",3,0.67,-1,80.3196,0.66667,100,1.8,0.33333,200,90,1,TRUE,0,0,0.05,TRUE,"c(1, 7, 2, 8, 3, 9, 4, 10, 5, 11, 6, 12)",0,"A","unstable",0.01,TRUE,0,1460673734
1,1,"2","2016-04-14 15:42:14.083",1460673734083248896,1.13,"4",4,1.13,-1,120.4128,0.66667,100,1.8,0.33333,200,90,1,TRUE,0,0,0.05,TRUE,"c(1, 7, 2, 8, 3, 9, 4, 10, 5, 11, 6, 12)",0,"A","unstable",0.01,TRUE,0,1460673734
1,1,"2","2016-04-14 15:42:14.083",1460673734083248896,0.58,"5",5,0.58,-1,75.924,0.66667,100,1.8,0.33333,200,90,1,TRUE,0,0,0.05,TRUE,"c(1, 7, 2, 8, 3, 9, 4, 10, 5, 11, 6, 12)",0,"A","unstable",0.01,TRUE,0,1460673734
1,1,"2","2016-04-14 15:42:14.083",1460673734083248896,1.23,"6",6,1.23,-1,114.6852,0.66667,100,1.8,0.33333,200,90,1,TRUE,0,0,0.05,TRUE,"c(1, 7, 2, 8, 3, 9, 4, 10, 5, 11, 6, 12)",0,"A","unstable",0.01,TRUE,0,1460673734
1,1,"2","2016-04-14 15:42:15.095",1460673735095495936,1.45,"1",1,1.45,-1,115.884,0.66667,100,1.8,0.33333,200,90,1,TRUE,0,0,0.05,TRUE,"c(1, 7, 2, 8, 3, 9, 4, 10, 5, 11, 6, 12)",0,"A","unstable",0.01,TRUE,0,1460673735
1,1,"2","2016-04-14 15:42:15.095",1460673735095495936,1.42,"2",2,1.42,-1,132.4008,0.66667,100,1.8,0.33333,200,90,1,TRUE,0,0,0.05,TRUE,"c(1, 7, 2, 8, 3, 9, 4, 10, 5, 11, 6, 12)",0,"A","unstable",0.01,TRUE,0,1460673735
1,1,"2","2016-04-14 15:42:15.095",1460673735095495936,0.65,"3",3,0.65,-1,85.248,0.66667,100,1.8,0.33333,200,90,1,TRUE,0,0,0.05,TRUE,"c(1, 7, 2, 8, 3, 9, 4, 10, 5, 11, 6, 12)",0,"A","unstable",0.01,TRUE,0,1460673735
1,1,"2","2016-04-14 15:42:15.095",1460673735095495936,1.8,"4",4,1.56,-1,100.566,0.66667,100,1.8,0.33333,200,90,1,TRUE,0,0,0.05,TRUE,"c(1, 7, 2, 8, 3, 9, 4, 10, 5, 11, 6, 12)",0,"A","unstable",0.01,TRUE,0,1460673735
1,1,"2","2016-04-14 15:42:15.095",1460673735095495936,0.7,"5",5,0.7,-1,83.916,0.66667,100,1.8,0.33333,200,90,1,TRUE,0,0,0.05,TRUE,"c(1, 7, 2, 8, 3, 9, 4, 10, 5, 11, 6, 12)",0,"A","unstable",0.01,TRUE,0,1460673735
1,1,"2","2016-04-14 15:42:15.095",1460673735095495936,1.22,"6",6,1.22,-1,130.0032,0.66667,100,1.8,0.33333,200,90,1,TRUE,0,0,0.05,TRUE,"c(1, 7, 2, 8, 3, 9, 4, 10, 5, 11, 6, 12)",0,"A","unstable",0.01,TRUE,0,1460673735
1,1,"2","2016-04-14 15:42:16.103",1460673736102715392,1.65,"1",1,1.65,-1,131.0688,0.66667,100,1.8,0.33333,200,90,1,TRUE,0,0,0.05,TRUE,"c(1, 7, 2, 8, 3, 9, 4, 10, 5, 11, 6, 12)",0,"A","unstable",0.01,TRUE,0,1460673736
1,1,"2","2016-04-14 15:42:16.103",1460673736102715392,1.56,"2",2,1.56,-1,150.1164,0.66667,100,1.8,0.33333,200,90,1,TRUE,0,0,0.05,TRUE,"c(1, 7, 2, 8, 3, 9, 4, 10, 5, 11, 6, 12)",0,"A","unstable",0.01,TRUE,0,1460673736
1,1,"2","2016-04-14 15:42:16.103",1460673736102715392,0.79,"3",3,0.79,-1,94.7052,0.66667,100,1.8,0.33333,200,90,1,TRUE,0,0,0.05,TRUE,"c(1, 7, 2, 8, 3, 9, 4, 10, 5, 11, 6, 12)",0,"A","unstable",0.01,TRUE,0,1460673736
1,1,"2","2016-04-14 15:42:16.103",1460673736102715392,1.8,"4",4,1.8,-1,119.88,0.66667,100,1.8,0.33333,200,90,1,TRUE,0,0,0.05,TRUE,"c(1, 7, 2, 8, 3, 9, 4, 10, 5, 11, 6, 12)",0,"A","unstable",0.01,TRUE,0,1460673736
1,1,"2","2016-04-14 15:42:16.103",1460673736102715392,0.79,"5",5,0.79,-1,103.896,0.66667,100,1.8,0.33333,200,90,1,TRUE,0,0,0.05,TRUE,"c(1, 7, 2, 8, 3, 9, 4, 10, 5, 11, 6, 12)",0,"A","unstable",0.01,TRUE,0,1460673736
1,1,"2","2016-04-14 15:42:16.103",1460673736102715392,1.22,"6",6,1.22,-1,130.0032,0.66667,100,1.8,0.33333,200,90,1,TRUE,0,0,0.05,TRUE,"c(1, 7, 2, 8, 3, 9, 4, 10, 5, 11, 6, 12)",0,"A","unstable",0.01,TRUE,0,1460673736
1,1,"2","2016-04-14 15:42:17.013",1460673737012608256,1.8,"1",1.5,1.8,-1,131.868,0.66667,100,1.8,0.33333,200,90,1,TRUE,0,0,0.05,TRUE,"c(1, 7, 2, 8, 3, 9, 4, 10, 5, 11, 6, 12)",0,"A","unstable",0.01,TRUE,0,1460673737
1,1,"2","2016-04-14 15:42:17.013",1460673737012608256,1.69,"2",1.5,1.69,-1,157.5756,0.66667,100,1.8,0.33333,200,90,1,TRUE,0,0,0.05,TRUE,"c(1, 7, 2, 8, 3, 9, 4, 10, 5, 11, 6, 12)",0,"A","unstable",0.01,TRUE,0,1460673737
1,1,"2","2016-04-14 15:42:17.013",1460673737012608256,0.8,"3",3,0.8,-1,106.56,0.66667,100,1.8,0.33333,200,90,1,TRUE,0,0,0.05,TRUE,"c(1, 7, 2, 8, 3, 9, 4, 10, 5, 11, 6, 12)",0,"A","unstable",0.01,TRUE,0,1460673737
1,1,"2","2016-04-14 15:42:17.013",1460673737012608256,1.8,"4",4,1.8,-1,131.868,0.66667,100,1.8,0.33333,200,90,1,TRUE,0,0,0.05,TRUE,"c(1, 7, 2, 8, 3, 9, 4, 10, 5, 11, 6, 12)",0,"A","unstable",0.01,TRUE,0,1460673737
1,1,"2","2016-04-14 15:42:17.013",1460673737012608256,0.88,"5",5,0.88,-1,104.2956,0.66667,100,1.8,0.33333,200,90,1,TRUE,0,0,0.05,TRUE,"c(1, 7, 2, 8, 3, 9, 4, 10, 5, 11, 6, 12)",0,"A","unstable",0.01,TRUE,0,1460673737
1,1,"2","2016-04-14 15:42:17.013",1460673737012608256,1.21,"6",6,1.21,-1,128.9376,0.66667,100,1.8,0.33333,200,90,1,TRUE,0,0,0.05,TRUE,"c(1, 7, 2, 8, 3, 9, 4, 10, 5, 11, 6, 12)",0,"A","unstable",0.01,TRUE,0,1460673737
1,1,"2","2016-04-14 15:42:18.024",1460673738024118528,1.8,"1",1.5,1.8,-1,131.868,0.66667,100,1.8,0.33333,200,90,1,TRUE,0,0,0.05,TRUE,"c(1, 7, 2, 8, 3, 9, 4, 10, 5, 11, 6, 12)",0,"A","unstable",0.01,TRUE,0,1460673738
1,1,"2","2016-04-14 15:42:18.024",1460673738024118528,1.75,"2",1.5,1.75,-1,163.17,0.66667,100,1.8,0.33333,200,90,1,TRUE,0,0,0.05,TRUE,"c(1, 7, 2, 8, 3, 9, 4, 10, 5, 11, 6, 12)",0,"A","unstable",0.01,TRUE,0,1460673738
1,1,"2","2016-04-14 15:42:18.024",1460673738024118528,1,"3",3,1,-1,117.4824,0.66667,100,1.8,0.33333,200,90,1,TRUE,0,0,0.05,TRUE,"c(1, 7, 2, 8, 3, 9, 4, 10, 5, 11, 6, 12)",0,"A","unstable",0.01,TRUE,0,1460673738
1,1,"2","2016-04-14 15:42:18.024",1460673738024118528,1.8,"4",4,1.8,-1,131.868,0.66667,100,1.8,0.33333,200,90,1,TRUE,0,0,0.05,TRUE,"c(1, 7, 2, 8, 3, 9, 4, 10, 5, 11, 6, 12)",0,"A","unstable",0.01,TRUE,0,1460673738
1,1,"2","2016-04-14 15:42:18.024",1460673738024118528,0.97,"5",5,0.97,-1,127.872,0.66667,100,1.8,0.33333,200,90,1,TRUE,0,0,0.05,TRUE,"c(1, 7, 2, 8, 3, 9, 4, 10, 5, 11, 6, 12)",0,"A","unstable",0.01,TRUE,0,1460673738
1,1,"2","2016-04-14 15:42:18.024",1460673738024118528,1.2,"6",6,1.2,-1,127.872,0.66667,100,1.8,0.33333,200,90,1,TRUE,0,0,0.05,TRUE,"c(1, 7, 2, 8, 3, 9, 4, 10, 5, 11, 6, 12)",0,"A","unstable",0.01,TRUE,0,1460673738
1,1,"2","2016-04-14 15:42:19.031",1460673739030599680,1.8,"1",1,1.8,-1,143.0568,0.66667,100,1.8,0.33333,200,90,1,TRUE,0,0,0.05,TRUE,"c(1, 7, 2, 8, 3, 9, 4, 10, 5, 11, 6, 12)",0,"A","unstable",0.01,TRUE,0,1460673739
1,1,"2","2016-04-14 15:42:19.031",1460673739030599680,1.78,"2",2,1.78,-1,165.9672,0.66667,100,1.8,0.33333,200,90,1,TRUE,0,0,0.05,TRUE,"c(1, 7, 2, 8, 3, 9, 4, 10, 5, 11, 6, 12)",0,"A","unstable",0.01,TRUE,0,1460673739
1,1,"2","2016-04-14 15:42:19.031",1460673739030599680,1.1,"3",3,1.1,-1,130.6692,0.66667,100,1.8,0.33333,200,90,1,TRUE,0,0,0.05,TRUE,"c(1, 7, 2, 8, 3, 9, 4, 10, 5, 11, 6, 12)",0,"A","unstable",0.01,TRUE,0,1460673739
1,1,"2","2016-04-14 15:42:19.031",1460673739030599680,1.8,"4",4,1.8,-1,119.88,0.66667,100,1.8,0.33333,200,90,1,TRUE,0,0,0.05,TRUE,"c(1, 7, 2, 8, 3, 9, 4, 10, 5, 11, 6, 12)",0,"A","unstable",0.01,TRUE,0,1460673739
1,1,"2","2016-04-14 15:42:19.031",1460673739030599680,1.05,"5",5,1.05,-1,139.86,0.66667,100,1.8,0.33333,200,90,1,TRUE,0,0,0.05,TRUE,"c(1, 7, 2, 8, 3, 9, 4, 10, 5, 11, 6, 12)",0,"A","unstable",0.01,TRUE,0,1460673739
1,1,"2","2016-04-14 15:42:19.031",1460673739030599680,1.2,"6",6,1.2,-1,127.872,0.66667,100,1.8,0.33333,200,90,1,TRUE,0,0,0.05,TRUE,"c(1, 7, 2, 8, 3, 9, 4, 10, 5, 11, 6, 12)",0,"A","unstable",0.01,TRUE,0,1460673739
1,1,"2","2016-04-14 15:42:20.036",1460673740036062464,1.8,"1",1,1.8,-1,119.88,0.66667,100,1.8,0.33333,200,90,1,TRUE,0,0,0.05,TRUE,"c(1, 7, 2, 8, 3, 9, 4, 10, 5, 11, 6, 12)",0,"A","unstable",0.01,TRUE,0,1460673740
1,1,"2","2016-04-14 15:42:20.036",1460673740036062464,1.78,"2",2,1.78,-1,165.9672,0.66667,100,1.8,0.33333,200,90,1,TRUE,0,0,0.05,TRUE,"c(1, 7, 2, 8, 3, 9, 4, 10, 5, 11, 6, 12)",0,"A","unstable",0.01,TRUE,0,1460673740
1,1,"2","2016-04-14 15:42:20.036",1460673740036062464,1.2,"3",3,1.2,-1,142.6572,0.66667,100,1.8,0.33333,200,90,1,TRUE,0,0,0.05,TRUE,"c(1, 7, 2, 8, 3, 9, 4, 10, 5, 11, 6, 12)",0,"A","unstable",0.01,TRUE,0,1460673740
1,1,"2","2016-04-14 15:42:20.036",1460673740036062464,1.79,"4",4,1.79,-1,143.0568,0.66667,100,1.8,0.33333,200,90,1,TRUE,0,0,0.05,TRUE,"c(1, 7, 2, 8, 3, 9, 4, 10, 5, 11, 6, 12)",0,"A","unstable",0.01,TRUE,0,1460673740
1,1,"2","2016-04-14 15:42:20.036",1460673740036062464,1.05,"5",5,1.05,-1,139.86,0.66667,100,1.8,0.33333,200,90,1,TRUE,0,0,0.05,TRUE,"c(1, 7, 2, 8, 3, 9, 4, 10, 5, 11, 6, 12)",0,"A","unstable",0.01,TRUE,0,1460673740
1,1,"2","2016-04-14 15:42:20.036",1460673740036062464,1.2,"6",6,1.2,-1,127.872,0.66667,100,1.8,0.33333,200,90,1,TRUE,0,0,0.05,TRUE,"c(1, 7, 2, 8, 3, 9, 4, 10, 5, 11, 6, 12)",0,"A","unstable",0.01,TRUE,0,1460673740
1,1,"2","2016-04-14 15:42:21.057",1460673741056799488,1.8,"1",1,1.8,-1,119.88,0.66667,100,1.8,0.33333,200,90,1,TRUE,0,0,0.05,TRUE,"c(1, 7, 2, 8, 3, 9, 4, 10, 5, 11, 6, 12)",0,"A","unstable",0.01,TRUE,0,1460673741
1,1,"2","2016-04-14 15:42:21.057",1460673741056799488,1.78,"2",2,1.78,-1,142.2576,0.66667,100,1.8,0.33333,200,90,1,TRUE,0,0,0.05,TRUE,"c(1, 7, 2, 8, 3, 9, 4, 10, 5, 11, 6, 12)",0,"A","unstable",0.01,TRUE,0,1460673741
1,1,"2","2016-04-14 15:42:21.057",1460673741056799488,1.25,"3",3,1.25,-1,148.6512,0.66667,100,1.8,0.33333,200,90,1,TRUE,0,0,0.05,TRUE,"c(1, 7, 2, 8, 3, 9, 4, 10, 5, 11, 6, 12)",0,"A","unstable",0.01,TRUE,0,1460673741
1,1,"2","2016-04-14 15:42:21.057",1460673741056799488,1.75,"4",4,1.75,-1,163.17,0.66667,100,1.8,0.33333,200,90,1,TRUE,0,0,0.05,TRUE,"c(1, 7, 2, 8, 3, 9, 4, 10, 5, 11, 6, 12)",0,"A","unstable",0.01,TRUE,0,1460673741
1,1,"2","2016-04-14 15:42:21.057",1460673741056799488,1.07,"5",5,1.07,-1,139.86,0.66667,100,1.8,0.33333,200,90,1,TRUE,0,0,0.05,TRUE,"c(1, 7, 2, 8, 3, 9, 4, 10, 5, 11, 6, 12)",0,"A","unstable",0.01,TRUE,0,1460673741
1,1,"2","2016-04-14 15:42:21.057",1460673741056799488,1.3,"6",6,1.3,-1,138.528,0.66667,100,1.8,0.33333,200,90,1,TRUE,0,0,0.05,TRUE,"c(1, 7, 2, 8, 3, 9, 4, 10, 5, 11, 6, 12)",0,"A","unstable",0.01,TRUE,0,1460673741
1,1,"2","2016-04-14 15:42:22.080",1460673742079509248,1.8,"1",1,1.8,-1,119.88,0.66667,100,1.8,0.33333,200,90,1,TRUE,0,0,0.05,TRUE,"c(1, 7, 2, 8, 3, 9, 4, 10, 5, 11, 6, 12)",0,"A","unstable",0.01,TRUE,0,1460673742
1,1,"2","2016-04-14 15:42:22.080",1460673742079509248,1.78,"2",2,1.78,-1,142.2576,0.66667,100,1.8,0.33333,200,90,1,TRUE,0,0,0.05,TRUE,"c(1, 7, 2, 8, 3, 9, 4, 10, 5, 11, 6, 12)",0,"A","unstable",0.01,TRUE,0,1460673742
1,1,"2","2016-04-14 15:42:22.080",1460673742079509248,1.41,"3",3,1.41,-1,149.184,0.66667,100,1.8,0.33333,200,90,1,TRUE,0,0,0.05,TRUE,"c(1, 7, 2, 8, 3, 9, 4, 10, 5, 11, 6, 12)",0,"A","unstable",0.01,TRUE,0,1460673742
1,1,"2","2016-04-14 15:42:22.080",1460673742079509248,1.68,"4",4,1.68,-1,156.6432,0.66667,100,1.8,0.33333,200,90,1,TRUE,0,0,0.05,TRUE,"c(1, 7, 2, 8, 3, 9, 4, 10, 5, 11, 6, 12)",0,"A","unstable",0.01,TRUE,0,1460673742
1,1,"2","2016-04-14 15:42:22.080",1460673742079509248,1.12,"5",5,1.12,-1,147.852,0.66667,100,1.8,0.33333,200,90,1,TRUE,0,0,0.05,TRUE,"c(1, 7, 2, 8, 3, 9, 4, 10, 5, 11, 6, 12)",0,"A","unstable",0.01,TRUE,0,1460673742
1,1,"2","2016-04-14 15:42:22.080",1460673742079509248,1.36,"6",6,1.36,-1,161.838,0.66667,100,1.8,0.33333,200,90,1,TRUE,0,0,0.05,TRUE,"c(1, 7, 2, 8, 3, 9, 4, 10, 5, 11, 6, 12)",0,"A","unstable",0.01,TRUE,0,1460673742
1,1,"2","2016-04-14 15:42:23.098",1460673743098324736,1.8,"1",1,1.8,-1,119.88,0.66667,100,1.8,0.33333,200,90,1,TRUE,0,0,0.05,TRUE,"c(1, 7, 2, 8, 3, 9, 4, 10, 5, 11, 6, 12)",0,"A","unstable",0.01,TRUE,0,1460673743
1,1,"2","2016-04-14 15:42:23.098",1460673743098324736,1.71,"2",2,1.71,-1,159.4404,0.66667,100,1.8,0.33333,200,90,1,TRUE,0,0,0.05,TRUE,"c(1, 7, 2, 8, 3, 9, 4, 10, 5, 11, 6, 12)",0,"A","unstable",0.01,TRUE,0,1460673743
1,1,"2","2016-04-14 15:42:23.098",1460673743098324736,1.41,"3",3,1.41,-1,150.2496,0.66667,100,1.8,0.33333,200,90,1,TRUE,0,0,0.05,TRUE,"c(1, 7, 2, 8, 3, 9, 4, 10, 5, 11, 6, 12)",0,"A","unstable",0.01,TRUE,0,1460673743
1,1,"2","2016-04-14 15:42:23.098",1460673743098324736,1.72,"4",4,1.72,-1,137.4624,0.66667,100,1.8,0.33333,200,90,1,TRUE,0,0,0.05,TRUE,"c(1, 7, 2, 8, 3, 9, 4, 10, 5, 11, 6, 12)",0,"A","unstable",0.01,TRUE,0,1460673743
1,1,"2","2016-04-14 15:42:23.098",1460673743098324736,1.2,"5",5,1.2,-1,158.508,0.66667,100,1.8,0.33333,200,90,1,TRUE,0,0,0.05,TRUE,"c(1, 7, 2, 8, 3, 9, 4, 10, 5, 11, 6, 12)",0,"A","unstable",0.01,TRUE,0,1460673743
1,1,"2","2016-04-14 15:42:23.098",1460673743098324736,1.38,"6",6,1.38,-1,164.2356,0.66667,100,1.8,0.33333,200,90,1,TRUE,0,0,0.05,TRUE,"c(1, 7, 2, 8, 3, 9, 4, 10, 5, 11, 6, 12)",0,"A","unstable",0.01,TRUE,0,1460673743
1,1,"2","2016-04-14 15:42:24.002",1460673744001748736,1.8,"1",1,1.8,-1,119.88,0.66667,100,1.8,0.33333,200,90,1,TRUE,0,0,0.05,TRUE,"c(1, 7, 2, 8, 3, 9, 4, 10, 5, 11, 6, 12)",0,"A","unstable",0.01,TRUE,0,1460673744
1,1,"2","2016-04-14 15:42:24.002",1460673744001748736,1.69,"2",2,1.69,-1,157.5756,0.66667,100,1.8,0.33333,200,90,1,TRUE,0,0,0.05,TRUE,"c(1, 7, 2, 8, 3, 9, 4, 10, 5, 11, 6, 12)",0,"A","unstable",0.01,TRUE,0,1460673744
1,1,"2","2016-04-14 15:42:24.002",1460673744001748736,1.41,"3",3,1.41,-1,150.2496,0.66667,100,1.8,0.33333,200,90,1,TRUE,0,0,0.05,TRUE,"c(1, 7, 2, 8, 3, 9, 4, 10, 5, 11, 6, 12)",0,"A","unstable",0.01,TRUE,0,1460673744
1,1,"2","2016-04-14 15:42:24.002",1460673744001748736,1.71,"4",4,1.71,-1,137.4624,0.66667,100,1.8,0.33333,200,90,1,TRUE,0,0,0.05,TRUE,"c(1, 7, 2, 8, 3, 9, 4, 10, 5, 11, 6, 12)",0,"A","unstable",0.01,TRUE,0,1460673744
1,1,"2","2016-04-14 15:42:24.002",1460673744001748736,1.2,"5",5,1.2,-1,159.84,0.66667,100,1.8,0.33333,200,90,1,TRUE,0,0,0.05,TRUE,"c(1, 7, 2, 8, 3, 9, 4, 10, 5, 11, 6, 12)",0,"A","unstable",0.01,TRUE,0,1460673744
1,1,"2","2016-04-14 15:42:24.002",1460673744001748736,1.39,"6",6,1.39,-1,166.6332,0.66667,100,1.8,0.33333,200,90,1,TRUE,0,0,0.05,TRUE,"c(1, 7, 2, 8, 3, 9, 4, 10, 5, 11, 6, 12)",0,"A","unstable",0.01,TRUE,0,1460673744
1,1,"2","2016-04-14 15:42:25.014",1460673745013992448,1.8,"1",1,1.8,-1,119.88,0.66667,100,1.8,0.33333,200,90,1,TRUE,0,0,0.05,TRUE,"c(1, 7, 2, 8, 3, 9, 4, 10, 5, 11, 6, 12)",0,"A","unstable",0.01,TRUE,0,1460673745
1,1,"2","2016-04-14 15:42:25.014",1460673745013992448,1.69,"2",2,1.69,-1,135.0648,0.66667,100,1.8,0.33333,200,90,1,TRUE,0,0,0.05,TRUE,"c(1, 7, 2, 8, 3, 9, 4, 10, 5, 11, 6, 12)",0,"A","unstable",0.01,TRUE,0,1460673745
1,1,"2","2016-04-14 15:42:25.014",1460673745013992448,1.4,"3",3,1.4,-1,158.508,0.66667,100,1.8,0.33333,200,90,1,TRUE,0,0,0.05,TRUE,"c(1, 7, 2, 8, 3, 9, 4, 10, 5, 11, 6, 12)",0,"A","unstable",0.01,TRUE,0,1460673745
1,1,"2","2016-04-14 15:42:25.014",1460673745013992448,1.65,"4",4.5,1.65,-1,154.7784,0.66667,100,1.8,0.33333,200,90,1,TRUE,0,0,0.05,TRUE,"c(1, 7, 2, 8, 3, 9, 4, 10, 5, 11, 6, 12)",0,"A","unstable",0.01,TRUE,0,1460673745
1,1,"2","2016-04-14 15:42:25.014",1460673745013992448,1.2,"5",4.5,1.2,-1,159.84,0.66667,100,1.8,0.33333,200,90,1,TRUE,0,0,0.05,TRUE,"c(1, 7, 2, 8, 3, 9, 4, 10, 5, 11, 6, 12)",0,"A","unstable",0.01,TRUE,0,1460673745
1,1,"2","2016-04-14 15:42:25.014",1460673745013992448,1.4,"6",6,1.4,-1,158.508,0.66667,100,1.8,0.33333,200,90,1,TRUE,0,0,0.05,TRUE,"c(1, 7, 2, 8, 3, 9, 4, 10, 5, 11, 6, 12)",0,"A","unstable",0.01,TRUE,0,1460673745
1,1,"2","2016-04-14 15:42:26.050",1460673746050296064,0.85,"1",1,1.39,-1,172.6272,0.66667,100,1.8,0.33333,200,90,1,TRUE,0,0,0.05,TRUE,"c(1, 7, 2, 8, 3, 9, 4, 10, 5, 11, 6, 12)",0,"A","unstable",0.01,TRUE,0,1460673746
1,1,"2","2016-04-14 15:42:26.050",1460673746050296064,1.69,"2",2,1.69,-1,112.554,0.66667,100,1.8,0.33333,200,90,1,TRUE,0,0,0.05,TRUE,"c(1, 7, 2, 8, 3, 9, 4, 10, 5, 11, 6, 12)",0,"A","unstable",0.01,TRUE,0,1460673746
1,1,"2","2016-04-14 15:42:26.050",1460673746050296064,1.45,"3",3,1.45,-1,154.512,0.66667,100,1.8,0.33333,200,90,1,TRUE,0,0,0.05,TRUE,"c(1, 7, 2, 8, 3, 9, 4, 10, 5, 11, 6, 12)",0,"A","unstable",0.01,TRUE,0,1460673746
1,1,"2","2016-04-14 15:42:26.050",1460673746050296064,1.63,"4",4,1.63,-1,130.2696,0.66667,100,1.8,0.33333,200,90,1,TRUE,0,0,0.05,TRUE,"c(1, 7, 2, 8, 3, 9, 4, 10, 5, 11, 6, 12)",0,"A","unstable",0.01,TRUE,0,1460673746
1,1,"2","2016-04-14 15:42:26.050",1460673746050296064,1.2,"5",5,1.2,-1,159.84,0.66667,100,1.8,0.33333,200,90,1,TRUE,0,0,0.05,TRUE,"c(1, 7, 2, 8, 3, 9, 4, 10, 5, 11, 6, 12)",0,"A","unstable",0.01,TRUE,0,1460673746
1,1,"2","2016-04-14 15:42:26.050",1460673746050296064,1.53,"6",6,1.53,-1,140.7924,0.66667,100,1.8,0.33333,200,90,1,TRUE,0,0,0.05,TRUE,"c(1, 7, 2, 8, 3, 9, 4, 10, 5, 11, 6, 12)",0,"A","unstable",0.01,TRUE,0,1460673746
1,1,"2","2016-04-14 15:42:27.088",1460673747088229376,0.4,"1",1,0.889999999999999,-1,125.208,0.66667,100,1.8,0.33333,200,90,1,TRUE,0,0,0.05,TRUE,"c(1, 7, 2, 8, 3, 9, 4, 10, 5, 11, 6, 12)",0,"A","unstable",0.01,TRUE,0,1460673747
1,1,"2","2016-04-14 15:42:27.088",1460673747088229376,1.42,"2",2,1.57,-1,121.4784,0.66667,100,1.8,0.33333,200,90,1,TRUE,0,0,0.05,TRUE,"c(1, 7, 2, 8, 3, 9, 4, 10, 5, 11, 6, 12)",0,"A","unstable",0.01,TRUE,0,1460673747
1,1,"2","2016-04-14 15:42:27.088",1460673747088229376,1.5,"3",3,1.5,-1,138.9276,0.66667,100,1.8,0.33333,200,90,1,TRUE,0,0,0.05,TRUE,"c(1, 7, 2, 8, 3, 9, 4, 10, 5, 11, 6, 12)",0,"A","unstable",0.01,TRUE,0,1460673747
1,1,"2","2016-04-14 15:42:27.088",1460673747088229376,1.61,"4",4.5,1.61,-1,107.226,0.66667,100,1.8,0.33333,200,90,1,TRUE,0,0,0.05,TRUE,"c(1, 7, 2, 8, 3, 9, 4, 10, 5, 11, 6, 12)",0,"A","unstable",0.01,TRUE,0,1460673747
1,1,"2","2016-04-14 15:42:27.088",1460673747088229376,1.2,"5",4.5,1.2,-1,135.864,0.66667,100,1.8,0.33333,200,90,1,TRUE,0,0,0.05,TRUE,"c(1, 7, 2, 8, 3, 9, 4, 10, 5, 11, 6, 12)",0,"A","unstable",0.01,TRUE,0,1460673747
1,1,"2","2016-04-14 15:42:27.088",1460673747088229376,1.15,"6",6,1.15,-1,135.864,0.66667,100,1.8,0.33333,200,90,1,TRUE,0,0,0.05,TRUE,"c(1, 7, 2, 8, 3, 9, 4, 10, 5, 11, 6, 12)",0,"A","unstable",0.01,TRUE,0,1460673747
1,1,"2","2016-04-14 15:42:28.014",1460673748014219776,0.23,"1",1,0.439999999999999,-1,65.2679999999999,0.66667,100,1.8,0.33333,200,90,1,TRUE,0,0,0.05,TRUE,"c(1, 7, 2, 8, 3, 9, 4, 10, 5, 11, 6, 12)",0,"A","unstable",0.01,TRUE,0,1460673748
1,1,"2","2016-04-14 15:42:28.014",1460673748014219776,1.41,"2",2,1.41,-1,112.6872,0.66667,100,1.8,0.33333,200,90,1,TRUE,0,0,0.05,TRUE,"c(1, 7, 2, 8, 3, 9, 4, 10, 5, 11, 6, 12)",0,"A","unstable",0.01,TRUE,0,1460673748
1,1,"2","2016-04-14 15:42:28.014",1460673748014219776,1.29,"3",3,1.29,-1,120.2796,0.66667,100,1.8,0.33333,200,90,1,TRUE,0,0,0.05,TRUE,"c(1, 7, 2, 8, 3, 9, 4, 10, 5, 11, 6, 12)",0,"A","unstable",0.01,TRUE,0,1460673748
1,1,"2","2016-04-14 15:42:28.014",1460673748014219776,1.49,"4",4,1.49,-1,99.234,0.66667,100,1.8,0.33333,200,90,1,TRUE,0,0,0.05,TRUE,"c(1, 7, 2, 8, 3, 9, 4, 10, 5, 11, 6, 12)",0,"A","unstable",0.01,TRUE,0,1460673748
1,1,"2","2016-04-14 15:42:28.014",1460673748014219776,1.21,"5",5,1.21,-1,128.9376,0.66667,100,1.8,0.33333,200,90,1,TRUE,0,0,0.05,TRUE,"c(1, 7, 2, 8, 3, 9, 4, 10, 5, 11, 6, 12)",0,"A","unstable",0.01,TRUE,0,1460673748
1,1,"2","2016-04-14 15:42:28.014",1460673748014219776,1.27,"6",6,1.25,-1,143.856,0.66667,100,1.8,0.33333,200,90,1,TRUE,0,0,0.05,TRUE,"c(1, 7, 2, 8, 3, 9, 4, 10, 5, 11, 6, 12)",0,"A","unstable",0.01,TRUE,0,1460673748
1,1,"2","2016-04-14 15:42:29.085",1460673749085229056,1.08,"1",1,0.62,-1,75.924,0.66667,100,1.8,0.33333,200,90,1,TRUE,0,0,0.05,TRUE,"c(1, 7, 2, 8, 3, 9, 4, 10, 5, 11, 6, 12)",0,"A","unstable",0.01,TRUE,0,1460673749
1,1,"2","2016-04-14 15:42:29.085",1460673749085229056,1.61,"2",2,1.53,-1,126.2736,0.66667,100,1.8,0.33333,200,90,1,TRUE,0,0,0.05,TRUE,"c(1, 7, 2, 8, 3, 9, 4, 10, 5, 11, 6, 12)",0,"A","unstable",0.01,TRUE,0,1460673749
1,1,"2","2016-04-14 15:42:29.085",1460673749085229056,1.12,"3",3,1.12,-1,135.4644,0.66667,100,1.8,0.33333,200,90,1,TRUE,0,0,0.05,TRUE,"c(1, 7, 2, 8, 3, 9, 4, 10, 5, 11, 6, 12)",0,"A","unstable",0.01,TRUE,0,1460673749
1,1,"2","2016-04-14 15:42:29.085",1460673749085229056,1.63,"4",4,1.69,-1,115.884,0.66667,100,1.8,0.33333,200,90,1,TRUE,0,0,0.05,TRUE,"c(1, 7, 2, 8, 3, 9, 4, 10, 5, 11, 6, 12)",0,"A","unstable",0.01,TRUE,0,1460673749
1,1,"2","2016-04-14 15:42:29.085",1460673749085229056,1.23,"5",5,1.23,-1,130.0032,0.66667,100,1.8,0.33333,200,90,1,TRUE,0,0,0.05,TRUE,"c(1, 7, 2, 8, 3, 9, 4, 10, 5, 11, 6, 12)",0,"A","unstable",0.01,TRUE,0,1460673749
1,1,"2","2016-04-14 15:42:29.085",1460673749085229056,1.39,"6",6,1.31,-1,117.4824,0.66667,100,1.8,0.33333,200,90,1,TRUE,0,0,0.05,TRUE,"c(1, 7, 2, 8, 3, 9, 4, 10, 5, 11, 6, 12)",0,"A","unstable",0.01,TRUE,0,1460673749
1,1,"2","2016-04-14 15:42:30.018",1460673750017603328,1.6,"1",1,1.07,-1,135.864,0.66667,100,1.8,0.33333,200,90,1,TRUE,0,0,0.05,TRUE,"c(1, 7, 2, 8, 3, 9, 4, 10, 5, 11, 6, 12)",0,"A","unstable",0.01,TRUE,0,1460673750
1,1,"2","2016-04-14 15:42:30.018",1460673750017603328,1.44,"2",2,1.48,-1,133.3332,0.66667,100,1.8,0.33333,200,90,1,TRUE,0,0,0.05,TRUE,"c(1, 7, 2, 8, 3, 9, 4, 10, 5, 11, 6, 12)",0,"A","unstable",0.01,TRUE,0,1460673750
1,1,"2","2016-04-14 15:42:30.018",1460673750017603328,1.12,"3",3,1.12,-1,133.0668,0.66667,100,1.8,0.33333,200,90,1,TRUE,0,0,0.05,TRUE,"c(1, 7, 2, 8, 3, 9, 4, 10, 5, 11, 6, 12)",0,"A","unstable",0.01,TRUE,0,1460673750
1,1,"2","2016-04-14 15:42:30.018",1460673750017603328,1.8,"4",4,1.8,-1,119.88,0.66667,100,1.8,0.33333,200,90,1,TRUE,0,0,0.05,TRUE,"c(1, 7, 2, 8, 3, 9, 4, 10, 5, 11, 6, 12)",0,"A","unstable",0.01,TRUE,0,1460673750
1,1,"2","2016-04-14 15:42:30.018",1460673750017603328,1.25,"5",5,1.25,-1,132.1344,0.66667,100,1.8,0.33333,200,90,1,TRUE,0,0,0.05,TRUE,"c(1, 7, 2, 8, 3, 9, 4, 10, 5, 11, 6, 12)",0,"A","unstable",0.01,TRUE,0,1460673750
1,1,"2","2016-04-14 15:42:30.018",1460673750017603328,1.56,"6",6,1.56,-1,123.0768,0.66667,100,1.8,0.33333,200,90,1,TRUE,0,0,0.05,TRUE,"c(1, 7, 2, 8, 3, 9, 4, 10, 5, 11, 6, 12)",0,"A","unstable",0.01,TRUE,0,1460673750
1,1,"2","2016-04-14 15:42:31.057",1460673751056675584,1.8,"1",1,1.57,-1,141.7248,0.66667,100,1.8,0.33333,200,90,1,TRUE,0,0,0.05,TRUE,"c(1, 7, 2, 8, 3, 9, 4, 10, 5, 11, 6, 12)",0,"A","unstable",0.01,TRUE,0,1460673751
1,1,"2","2016-04-14 15:42:31.057",1460673751056675584,1.57,"2",2,1.57,-1,125.4744,0.66667,100,1.8,0.33333,200,90,1,TRUE,0,0,0.05,TRUE,"c(1, 7, 2, 8, 3, 9, 4, 10, 5, 11, 6, 12)",0,"A","unstable",0.01,TRUE,0,1460673751
1,1,"2","2016-04-14 15:42:31.057",1460673751056675584,1.27,"3",3,1.27,-1,151.0488,0.66667,100,1.8,0.33333,200,90,1,TRUE,0,0,0.05,TRUE,"c(1, 7, 2, 8, 3, 9, 4, 10, 5, 11, 6, 12)",0,"A","unstable",0.01,TRUE,0,1460673751
1,1,"2","2016-04-14 15:42:31.057",1460673751056675584,1.79,"4",4,1.79,-1,119.88,0.66667,100,1.8,0.33333,200,90,1,TRUE,0,0,0.05,TRUE,"c(1, 7, 2, 8, 3, 9, 4, 10, 5, 11, 6, 12)",0,"A","unstable",0.01,TRUE,0,1460673751
1,1,"2","2016-04-14 15:42:31.057",1460673751056675584,1.25,"5",5,1.25,-1,166.5,0.66667,100,1.8,0.33333,200,90,1,TRUE,0,0,0.05,TRUE,"c(1, 7, 2, 8, 3, 9, 4, 10, 5, 11, 6, 12)",0,"A","unstable",0.01,TRUE,0,1460673751
1,1,"2","2016-04-14 15:42:31.057",1460673751056675584,1.38,"6",6,1.38,-1,148.1184,0.66667,100,1.8,0.33333,200,90,1,TRUE,0,0,0.05,TRUE,"c(1, 7, 2, 8, 3, 9, 4, 10, 5, 11, 6, 12)",0,"A","unstable",0.01,TRUE,0,1460673751
1,1,"2","2016-04-14 15:42:32.018",1460673752018180352,1.8,"1",1,1.8,-1,119.88,0.66667,100,1.8,0.33333,200,90,1,TRUE,0,0,0.05,TRUE,"c(1, 7, 2, 8, 3, 9, 4, 10, 5, 11, 6, 12)",0,"A","unstable",0.01,TRUE,0,1460673752
1,1,"2","2016-04-14 15:42:32.018",1460673752018180352,1.59,"2",2,1.59,-1,127.0728,0.66667,100,1.8,0.33333,200,90,1,TRUE,0,0,0.05,TRUE,"c(1, 7, 2, 8, 3, 9, 4, 10, 5, 11, 6, 12)",0,"A","unstable",0.01,TRUE,0,1460673752
1,1,"2","2016-04-14 15:42:32.018",1460673752018180352,1.54,"3",3,1.48,-1,152.3808,0.66667,100,1.8,0.33333,200,90,1,TRUE,0,0,0.05,TRUE,"c(1, 7, 2, 8, 3, 9, 4, 10, 5, 11, 6, 12)",0,"A","unstable",0.01,TRUE,0,1460673752
1,1,"2","2016-04-14 15:42:32.018",1460673752018180352,1.56,"4",4,1.56,-1,145.4544,0.66667,100,1.8,0.33333,200,90,1,TRUE,0,0,0.05,TRUE,"c(1, 7, 2, 8, 3, 9, 4, 10, 5, 11, 6, 12)",0,"A","unstable",0.01,TRUE,0,1460673752
1,1,"2","2016-04-14 15:42:32.018",1460673752018180352,1.3,"5",5,1.3,-1,155.844,0.66667,100,1.8,0.33333,200,90,1,TRUE,0,0,0.05,TRUE,"c(1, 7, 2, 8, 3, 9, 4, 10, 5, 11, 6, 12)",0,"A","unstable",0.01,TRUE,0,1460673752
1,1,"2","2016-04-14 15:42:32.018",1460673752018180352,1.24,"6",6,1.24,-1,165.168,0.66667,100,1.8,0.33333,200,90,1,TRUE,0,0,0.05,TRUE,"c(1, 7, 2, 8, 3, 9, 4, 10, 5, 11, 6, 12)",0,"A","unstable",0.01,TRUE,0,1460673752
1,1,"2","2016-04-14 15:42:33.068",1460673753068196608,1.8,"1",1,1.8,-1,119.88,0.66667,100,1.8,0.33333,200,90,1,TRUE,0,0,0.05,TRUE,"c(1, 7, 2, 8, 3, 9, 4, 10, 5, 11, 6, 12)",0,"A","unstable",0.01,TRUE,0,1460673753
1,1,"2","2016-04-14 15:42:33.068",1460673753068196608,1.55,"2",2,1.55,-1,165.168,0.66667,100,1.8,0.33333,200,90,1,TRUE,0,0,0.05,TRUE,"c(1, 7, 2, 8, 3, 9, 4, 10, 5, 11, 6, 12)",0,"A","unstable",0.01,TRUE,0,1460673753
1,1,"2","2016-04-14 15:42:33.068",1460673753068196608,1.74,"3",3,1.74,-1,137.4624,0.66667,100,1.8,0.33333,200,90,1,TRUE,0,0,0.05,TRUE,"c(1, 7, 2, 8, 3, 9, 4, 10, 5, 11, 6, 12)",0,"A","unstable",0.01,TRUE,0,1460673753
1,1,"2","2016-04-14 15:42:33.068",1460673753068196608,1.61,"4",4,1.61,-1,149.184,0.66667,100,1.8,0.33333,200,90,1,TRUE,0,0,0.05,TRUE,"c(1, 7, 2, 8, 3, 9, 4, 10, 5, 11, 6, 12)",0,"A","unstable",0.01,TRUE,0,1460673753
1,1,"2","2016-04-14 15:42:33.068",1460673753068196608,1.35,"5",5.5,1.35,-1,169.5636,0.66667,100,1.8,0.33333,200,90,1,TRUE,0,0,0.05,TRUE,"c(1, 7, 2, 8, 3, 9, 4, 10, 5, 11, 6, 12)",0,"A","unstable",0.01,TRUE,0,1460673753
1,1,"2","2016-04-14 15:42:33.068",1460673753068196608,1.36,"6",5.5,1.36,-1,169.5636,0.66667,100,1.8,0.33333,200,90,1,TRUE,0,0,0.05,TRUE,"c(1, 7, 2, 8, 3, 9, 4, 10, 5, 11, 6, 12)",0,"A","unstable",0.01,TRUE,0,1460673753
1,1,"2","2016-04-14 15:42:34.081",1460673754080740352,1.8,"1",1.5,1.8,-1,131.868,0.66667,100,1.8,0.33333,200,90,1,TRUE,0,0,0.05,TRUE,"c(1, 7, 2, 8, 3, 9, 4, 10, 5, 11, 6, 12)",0,"A","unstable",0.01,TRUE,0,1460673754
1,1,"2","2016-04-14 15:42:34.081",1460673754080740352,1.61,"2",1.5,1.61,-1,150.1164,0.66667,100,1.8,0.33333,200,90,1,TRUE,0,0,0.05,TRUE,"c(1, 7, 2, 8, 3, 9, 4, 10, 5, 11, 6, 12)",0,"A","unstable",0.01,TRUE,0,1460673754
1,1,"2","2016-04-14 15:42:34.081",1460673754080740352,1.8,"3",3,1.8,-1,131.868,0.66667,100,1.8,0.33333,200,90,1,TRUE,0,0,0.05,TRUE,"c(1, 7, 2, 8, 3, 9, 4, 10, 5, 11, 6, 12)",0,"A","unstable",0.01,TRUE,0,1460673754
1,1,"2","2016-04-14 15:42:34.081",1460673754080740352,1.6,"4",4,1.6,-1,170.496,0.66667,100,1.8,0.33333,200,90,1,TRUE,0,0,0.05,TRUE,"c(1, 7, 2, 8, 3, 9, 4, 10, 5, 11, 6, 12)",0,"A","unstable",0.01,TRUE,0,1460673754
1,1,"2","2016-04-14 15:42:34.081",1460673754080740352,1.34,"5",5,1.34,-1,178.488,0.66667,100,1.8,0.33333,200,90,1,TRUE,0,0,0.05,TRUE,"c(1, 7, 2, 8, 3, 9, 4, 10, 5, 11, 6, 12)",0,"A","unstable",0.01,TRUE,0,1460673754
1,1,"2","2016-04-14 15:42:34.081",1460673754080740352,1.52,"6",6,1.52,-1,179.82,0.66667,100,1.8,0.33333,200,90,1,TRUE,0,0,0.05,TRUE,"c(1, 7, 2, 8, 3, 9, 4, 10, 5, 11, 6, 12)",0,"A","unstable",0.01,TRUE,0,1460673754
1,1,"2","2016-04-14 15:42:35.013",1460673755012912128,1.8,"1",1.5,1.8,-1,131.868,0.66667,100,1.8,0.33333,200,90,1,TRUE,0,0,0.05,TRUE,"c(1, 7, 2, 8, 3, 9, 4, 10, 5, 11, 6, 12)",0,"A","unstable",0.01,TRUE,0,1460673755
1,1,"2","2016-04-14 15:42:35.013",1460673755012912128,1.55,"2",1.5,1.55,-1,175.491,0.66667,100,1.8,0.33333,200,90,1,TRUE,0,0,0.05,TRUE,"c(1, 7, 2, 8, 3, 9, 4, 10, 5, 11, 6, 12)",0,"A","unstable",0.01,TRUE,0,1460673755
1,1,"2","2016-04-14 15:42:35.013",1460673755012912128,1.8,"3",3,1.8,-1,131.868,0.66667,100,1.8,0.33333,200,90,1,TRUE,0,0,0.05,TRUE,"c(1, 7, 2, 8, 3, 9, 4, 10, 5, 11, 6, 12)",0,"A","unstable",0.01,TRUE,0,1460673755
1,1,"2","2016-04-14 15:42:35.013",1460673755012912128,1.55,"4",4.5,1.55,-1,146.3868,0.66667,100,1.8,0.33333,200,90,1,TRUE,0,0,0.05,TRUE,"c(1, 7, 2, 8, 3, 9, 4, 10, 5, 11, 6, 12)",0,"A","unstable",0.01,TRUE,0,1460673755
1,1,"2","2016-04-14 15:42:35.013",1460673755012912128,1.38,"5",4.5,1.38,-1,183.816,0.66667,100,1.8,0.33333,200,90,1,TRUE,0,0,0.05,TRUE,"c(1, 7, 2, 8, 3, 9, 4, 10, 5, 11, 6, 12)",0,"A","unstable",0.01,TRUE,0,1460673755
1,1,"2","2016-04-14 15:42:35.013",1460673755012912128,1.55,"6",6,1.55,-1,175.491,0.66667,100,1.8,0.33333,200,90,1,TRUE,0,0,0.05,TRUE,"c(1, 7, 2, 8, 3, 9, 4, 10, 5, 11, 6, 12)",0,"A","unstable",0.01,TRUE,0,1460673755
1,1,"2","2016-04-14 15:42:36.046",1460673756045922048,1.8,"1",1.5,1.8,-1,131.868,0.66667,100,1.8,0.33333,200,90,1,TRUE,0,0,0.05,TRUE,"c(1, 7, 2, 8, 3, 9, 4, 10, 5, 11, 6, 12)",0,"A","unstable",0.01,TRUE,0,1460673756
1,1,"2","2016-04-14 15:42:36.046",1460673756045922048,1.5,"2",1.5,1.5,-1,159.84,0.66667,100,1.8,0.33333,200,90,1,TRUE,0,0,0.05,TRUE,"c(1, 7, 2, 8, 3, 9, 4, 10, 5, 11, 6, 12)",0,"A","unstable",0.01,TRUE,0,1460673756
1,1,"2","2016-04-14 15:42:36.046",1460673756045922048,1.8,"3",3,1.8,-1,131.868,0.66667,100,1.8,0.33333,200,90,1,TRUE,0,0,0.05,TRUE,"c(1, 7, 2, 8, 3, 9, 4, 10, 5, 11, 6, 12)",0,"A","unstable",0.01,TRUE,0,1460673756
1,1,"2","2016-04-14 15:42:36.046",1460673756045922048,1.43,"4",4,1.43,-1,171.4284,0.66667,100,1.8,0.33333,200,90,1,TRUE,0,0,0.05,TRUE,"c(1, 7, 2, 8, 3, 9, 4, 10, 5, 11, 6, 12)",0,"A","unstable",0.01,TRUE,0,1460673756
1,1,"2","2016-04-14 15:42:36.046",1460673756045922048,1.38,"5",5,1.38,-1,183.816,0.66667,100,1.8,0.33333,200,90,1,TRUE,0,0,0.05,TRUE,"c(1, 7, 2, 8, 3, 9, 4, 10, 5, 11, 6, 12)",0,"A","unstable",0.01,TRUE,0,1460673756
1,1,"2","2016-04-14 15:42:36.046",1460673756045922048,1.52,"6",6,1.52,-1,141.7248,0.66667,100,1.8,0.33333,200,90,1,TRUE,0,0,0.05,TRUE,"c(1, 7, 2, 8, 3, 9, 4, 10, 5, 11, 6, 12)",0,"A","unstable",0.01,TRUE,0,1460673756
1,1,"2","2016-04-14 15:42:37.091",1460673757091175680,1.8,"1",1.5,1.8,-1,131.868,0.66667,100,1.8,0.33333,200,90,1,TRUE,0,0,0.05,TRUE,"c(1, 7, 2, 8, 3, 9, 4, 10, 5, 11, 6, 12)",0,"A","unstable",0.01,TRUE,0,1460673757
1,1,"2","2016-04-14 15:42:37.091",1460673757091175680,1.41,"2",1.5,1.41,-1,140.859,0.66667,100,1.8,0.33333,200,90,1,TRUE,0,0,0.05,TRUE,"c(1, 7, 2, 8, 3, 9, 4, 10, 5, 11, 6, 12)",0,"A","unstable",0.01,TRUE,0,1460673757
1,1,"2","2016-04-14 15:42:37.091",1460673757091175680,1.8,"3",3.5,1.8,-1,131.868,0.66667,100,1.8,0.33333,200,90,1,TRUE,0,0,0.05,TRUE,"c(1, 7, 2, 8, 3, 9, 4, 10, 5, 11, 6, 12)",0,"A","unstable",0.01,TRUE,0,1460673757
1,1,"2","2016-04-14 15:42:37.091",1460673757091175680,1.33,"4",3.5,1.33,-1,177.156,0.66667,100,1.8,0.33333,200,90,1,TRUE,0,0,0.05,TRUE,"c(1, 7, 2, 8, 3, 9, 4, 10, 5, 11, 6, 12)",0,"A","unstable",0.01,TRUE,0,1460673757
1,1,"2","2016-04-14 15:42:37.091",1460673757091175680,1.38,"5",5,1.38,-1,165.4344,0.66667,100,1.8,0.33333,200,90,1,TRUE,0,0,0.05,TRUE,"c(1, 7, 2, 8, 3, 9, 4, 10, 5, 11, 6, 12)",0,"A","unstable",0.01,TRUE,0,1460673757
1,1,"2","2016-04-14 15:42:37.091",1460673757091175680,1.4,"6",6,1.4,-1,140.859,0.66667,100,1.8,0.33333,200,90,1,TRUE,0,0,0.05,TRUE,"c(1, 7, 2, 8, 3, 9, 4, 10, 5, 11, 6, 12)",0,"A","unstable",0.01,TRUE,0,1460673757
1,1,"2","2016-04-14 15:42:38.019",1460673758019447552,1.8,"1",1.5,1.8,-1,131.868,0.66667,100,1.8,0.33333,200,90,1,TRUE,0,0,0.05,TRUE,"c(1, 7, 2, 8, 3, 9, 4, 10, 5, 11, 6, 12)",0,"A","unstable",0.01,TRUE,0,1460673758
1,1,"2","2016-04-14 15:42:38.019",1460673758019447552,1.33,"2",1.5,1.33,-1,168.2982,0.66667,100,1.8,0.33333,200,90,1,TRUE,0,0,0.05,TRUE,"c(1, 7, 2, 8, 3, 9, 4, 10, 5, 11, 6, 12)",0,"A","unstable",0.01,TRUE,0,1460673758
1,1,"2","2016-04-14 15:42:38.019",1460673758019447552,1.8,"3",3,1.8,-1,131.868,0.66667,100,1.8,0.33333,200,90,1,TRUE,0,0,0.05,TRUE,"c(1, 7, 2, 8, 3, 9, 4, 10, 5, 11, 6, 12)",0,"A","unstable",0.01,TRUE,0,1460673758
1,1,"2","2016-04-14 15:42:38.019",1460673758019447552,1.33,"4",4,1.33,-1,168.2982,0.66667,100,1.8,0.33333,200,90,1,TRUE,0,0,0.05,TRUE,"c(1, 7, 2, 8, 3, 9, 4, 10, 5, 11, 6, 12)",0,"A","unstable",0.01,TRUE,0,1460673758
1,1,"2","2016-04-14 15:42:38.019",1460673758019447552,1.4,"5",5.5,1.4,-1,130.536,0.66667,100,1.8,0.33333,200,90,1,TRUE,0,0,0.05,TRUE,"c(1, 7, 2, 8, 3, 9, 4, 10, 5, 11, 6, 12)",0,"A","unstable",0.01,TRUE,0,1460673758
1,1,"2","2016-04-14 15:42:38.019",1460673758019447552,1.34,"6",5.5,1.34,-1,142.7904,0.66667,100,1.8,0.33333,200,90,1,TRUE,0,0,0.05,TRUE,"c(1, 7, 2, 8, 3, 9, 4, 10, 5, 11, 6, 12)",0,"A","unstable",0.01,TRUE,0,1460673758
1,1,"2","2016-04-14 15:42:39.059",1460673759058974208,1.8,"1",1.5,1.8,-1,131.868,0.66667,100,1.8,0.33333,200,90,1,TRUE,0,0,0.05,TRUE,"c(1, 7, 2, 8, 3, 9, 4, 10, 5, 11, 6, 12)",0,"A","unstable",0.01,TRUE,0,1460673759
1,1,"2","2016-04-14 15:42:39.059",1460673759058974208,1.28,"2",1.5,1.28,-1,153.4464,0.66667,100,1.8,0.33333,200,90,1,TRUE,0,0,0.05,TRUE,"c(1, 7, 2, 8, 3, 9, 4, 10, 5, 11, 6, 12)",0,"A","unstable",0.01,TRUE,0,1460673759
1,1,"2","2016-04-14 15:42:39.059",1460673759058974208,1.8,"3",3,1.8,-1,131.868,0.66667,100,1.8,0.33333,200,90,1,TRUE,0,0,0.05,TRUE,"c(1, 7, 2, 8, 3, 9, 4, 10, 5, 11, 6, 12)",0,"A","unstable",0.01,TRUE,0,1460673759
1,1,"2","2016-04-14 15:42:39.059",1460673759058974208,1.33,"4",4,1.33,-1,141.7248,0.66667,100,1.8,0.33333,200,90,1,TRUE,0,0,0.05,TRUE,"c(1, 7, 2, 8, 3, 9, 4, 10, 5, 11, 6, 12)",0,"A","unstable",0.01,TRUE,0,1460673759
1,1,"2","2016-04-14 15:42:39.059",1460673759058974208,1.19,"5",5,1.19,-1,158.508,0.66667,100,1.8,0.33333,200,90,1,TRUE,0,0,0.05,TRUE,"c(1, 7, 2, 8, 3, 9, 4, 10, 5, 11, 6, 12)",0,"A","unstable",0.01,TRUE,0,1460673759
1,1,"2","2016-04-14 15:42:39.059",1460673759058974208,1.35,"6",6,1.35,-1,125.874,0.66667,100,1.8,0.33333,200,90,1,TRUE,0,0,0.05,TRUE,"c(1, 7, 2, 8, 3, 9, 4, 10, 5, 11, 6, 12)",0,"A","unstable",0.01,TRUE,0,1460673759
1,1,"2","2016-04-14 15:42:40.007",1460673760006768640,1.8,"1",1.5,1.8,-1,131.868,0.66667,100,1.8,0.33333,200,90,1,TRUE,0,0,0.05,TRUE,"c(1, 7, 2, 8, 3, 9, 4, 10, 5, 11, 6, 12)",0,"A","unstable",0.01,TRUE,0,1460673760
1,1,"2","2016-04-14 15:42:40.007",1460673760006768640,1.39,"2",1.5,1.39,-1,166.6332,0.66667,100,1.8,0.33333,200,90,1,TRUE,0,0,0.05,TRUE,"c(1, 7, 2, 8, 3, 9, 4, 10, 5, 11, 6, 12)",0,"A","unstable",0.01,TRUE,0,1460673760
1,1,"2","2016-04-14 15:42:40.007",1460673760006768640,1.8,"3",3,1.8,-1,131.868,0.66667,100,1.8,0.33333,200,90,1,TRUE,0,0,0.05,TRUE,"c(1, 7, 2, 8, 3, 9, 4, 10, 5, 11, 6, 12)",0,"A","unstable",0.01,TRUE,0,1460673760
1,1,"2","2016-04-14 15:42:40.007",1460673760006768640,1.6,"4",4,1.6,-1,167.2992,0.66667,100,1.8,0.33333,200,90,1,TRUE,0,0,0.05,TRUE,"c(1, 7, 2, 8, 3, 9, 4, 10, 5, 11, 6, 12)",0,"A","unstable",0.01,TRUE,0,1460673760
1,1,"2","2016-04-14 15:42:40.007",1460673760006768640,1.18,"5",5,1.18,-1,157.176,0.66667,100,1.8,0.33333,200,90,1,TRUE,0,0,0.05,TRUE,"c(1, 7, 2, 8, 3, 9, 4, 10, 5, 11, 6, 12)",0,"A","unstable",0.01,TRUE,0,1460673760
1,1,"2","2016-04-14 15:42:40.007",1460673760006768640,1.65,"6",6,1.65,-1,153.846,0.66667,100,1.8,0.33333,200,90,1,TRUE,0,0,0.05,TRUE,"c(1, 7, 2, 8, 3, 9, 4, 10, 5, 11, 6, 12)",0,"A","unstable",0.01,TRUE,0,1460673760
1,1,"2","2016-04-14 15:42:41.046",1460673761046070528,1.8,"1",1.5,1.8,-1,131.868,0.66667,100,1.8,0.33333,200,90,1,TRUE,0,0,0.05,TRUE,"c(1, 7, 2, 8, 3, 9, 4, 10, 5, 11, 6, 12)",0,"A","unstable",0.01,TRUE,0,1460673761
1,1,"2","2016-04-14 15:42:41.046",1460673761046070528,1.68,"2",1.5,1.68,-1,179.0208,0.66667,100,1.8,0.33333,200,90,1,TRUE,0,0,0.05,TRUE,"c(1, 7, 2, 8, 3, 9, 4, 10, 5, 11, 6, 12)",0,"A","unstable",0.01,TRUE,0,1460673761
1,1,"2","2016-04-14 15:42:41.046",1460673761046070528,1.8,"3",3,1.8,-1,131.868,0.66667,100,1.8,0.33333,200,90,1,TRUE,0,0,0.05,TRUE,"c(1, 7, 2, 8, 3, 9, 4, 10, 5, 11, 6, 12)",0,"A","unstable",0.01,TRUE,0,1460673761
1,1,"2","2016-04-14 15:42:41.046",1460673761046070528,1.66,"4",4,1.66,-1,197.802,0.66667,100,1.8,0.33333,200,90,1,TRUE,0,0,0.05,TRUE,"c(1, 7, 2, 8, 3, 9, 4, 10, 5, 11, 6, 12)",0,"A","unstable",0.01,TRUE,0,1460673761
1,1,"2","2016-04-14 15:42:41.046",1460673761046070528,1.18,"5",5,1.18,-1,157.176,0.66667,100,1.8,0.33333,200,90,1,TRUE,0,0,0.05,TRUE,"c(1, 7, 2, 8, 3, 9, 4, 10, 5, 11, 6, 12)",0,"A","unstable",0.01,TRUE,0,1460673761
1,1,"2","2016-04-14 15:42:41.046",1460673761046070528,1.79,"6",6,1.79,-1,166.8996,0.66667,100,1.8,0.33333,200,90,1,TRUE,0,0,0.05,TRUE,"c(1, 7, 2, 8, 3, 9, 4, 10, 5, 11, 6, 12)",0,"A","unstable",0.01,TRUE,0,1460673761
1,1,"2","2016-04-14 15:42:42.079",1460673762079407360,1.76,"1",1,1.76,-1,141.4584,0.66667,100,1.8,0.33333,200,90,1,TRUE,0,0,0.05,TRUE,"c(1, 7, 2, 8, 3, 9, 4, 10, 5, 11, 6, 12)",0,"A","unstable",0.01,TRUE,0,1460673762
1,1,"2","2016-04-14 15:42:42.079",1460673762079407360,1.6,"2",2,1.63,-1,189.4104,0.66667,100,1.8,0.33333,200,90,1,TRUE,0,0,0.05,TRUE,"c(1, 7, 2, 8, 3, 9, 4, 10, 5, 11, 6, 12)",0,"A","unstable",0.01,TRUE,0,1460673762
1,1,"2","2016-04-14 15:42:42.079",1460673762079407360,1.8,"3",3,1.8,-1,119.88,0.66667,100,1.8,0.33333,200,90,1,TRUE,0,0,0.05,TRUE,"c(1, 7, 2, 8, 3, 9, 4, 10, 5, 11, 6, 12)",0,"A","unstable",0.01,TRUE,0,1460673762
1,1,"2","2016-04-14 15:42:42.079",1460673762079407360,1.77,"4",4,1.77,-1,164.1024,0.66667,100,1.8,0.33333,200,90,1,TRUE,0,0,0.05,TRUE,"c(1, 7, 2, 8, 3, 9, 4, 10, 5, 11, 6, 12)",0,"A","unstable",0.01,TRUE,0,1460673762
1,1,"2","2016-04-14 15:42:42.079",1460673762079407360,1.42,"5",5,1.42,-1,186.48,0.66667,100,1.8,0.33333,200,90,1,TRUE,0,0,0.05,TRUE,"c(1, 7, 2, 8, 3, 9, 4, 10, 5, 11, 6, 12)",0,"A","unstable",0.01,TRUE,0,1460673762
1,1,"2","2016-04-14 15:42:42.079",1460673762079407360,1.63,"6",6,1.63,-1,173.6928,0.66667,100,1.8,0.33333,200,90,1,TRUE,0,0,0.05,TRUE,"c(1, 7, 2, 8, 3, 9, 4, 10, 5, 11, 6, 12)",0,"A","unstable",0.01,TRUE,0,1460673762
1,1,"2","2016-04-14 15:42:43.017",1460673763017243648,1.73,"1",1,1.73,-1,139.0608,0.66667,100,1.8,0.33333,200,90,1,TRUE,0,0,0.05,TRUE,"c(1, 7, 2, 8, 3, 9, 4, 10, 5, 11, 6, 12)",0,"A","unstable",0.01,TRUE,0,1460673763
1,1,"2","2016-04-14 15:42:43.017",1460673763017243648,1.58,"2",2,1.58,-1,189.4104,0.66667,100,1.8,0.33333,200,90,1,TRUE,0,0,0.05,TRUE,"c(1, 7, 2, 8, 3, 9, 4, 10, 5, 11, 6, 12)",0,"A","unstable",0.01,TRUE,0,1460673763
1,1,"2","2016-04-14 15:42:43.017",1460673763017243648,1.8,"3",3,1.8,-1,119.88,0.66667,100,1.8,0.33333,200,90,1,TRUE,0,0,0.05,TRUE,"c(1, 7, 2, 8, 3, 9, 4, 10, 5, 11, 6, 12)",0,"A","unstable",0.01,TRUE,0,1460673763
1,1,"2","2016-04-14 15:42:43.017",1460673763017243648,1.73,"4",4,1.73,-1,161.3052,0.66667,100,1.8,0.33333,200,90,1,TRUE,0,0,0.05,TRUE,"c(1, 7, 2, 8, 3, 9, 4, 10, 5, 11, 6, 12)",0,"A","unstable",0.01,TRUE,0,1460673763
1,1,"2","2016-04-14 15:42:43.017",1460673763017243648,1.51,"5",5,1.51,-1,199.8,0.66667,100,1.8,0.33333,200,90,1,TRUE,0,0,0.05,TRUE,"c(1, 7, 2, 8, 3, 9, 4, 10, 5, 11, 6, 12)",0,"A","unstable",0.01,TRUE,0,1460673763
1,1,"2","2016-04-14 15:42:43.017",1460673763017243648,1.59,"6",6,1.59,-1,169.4304,0.66667,100,1.8,0.33333,200,90,1,TRUE,0,0,0.05,TRUE,"c(1, 7, 2, 8, 3, 9, 4, 10, 5, 11, 6, 12)",0,"A","unstable",0.01,TRUE,0,1460673763
1,1,"2","2016-04-14 15:42:44.058",1460673764057551872,1.8,"1",1,1.8,-1,119.88,0.66667,100,1.8,0.33333,200,90,1,TRUE,0,0,0.05,TRUE,"c(1, 7, 2, 8, 3, 9, 4, 10, 5, 11, 6, 12)",0,"A","unstable",0.01,TRUE,0,1460673764
1,1,"2","2016-04-14 15:42:44.058",1460673764057551872,1.64,"2",2,1.64,-1,174.7584,0.66667,100,1.8,0.33333,200,90,1,TRUE,0,0,0.05,TRUE,"c(1, 7, 2, 8, 3, 9, 4, 10, 5, 11, 6, 12)",0,"A","unstable",0.01,TRUE,0,1460673764
1,1,"2","2016-04-14 15:42:44.058",1460673764057551872,1.74,"3",3,1.74,-1,162.2376,0.66667,100,1.8,0.33333,200,90,1,TRUE,0,0,0.05,TRUE,"c(1, 7, 2, 8, 3, 9, 4, 10, 5, 11, 6, 12)",0,"A","unstable",0.01,TRUE,0,1460673764
1,1,"2","2016-04-14 15:42:44.058",1460673764057551872,1.77,"4",4,1.77,-1,141.4584,0.66667,100,1.8,0.33333,200,90,1,TRUE,0,0,0.05,TRUE,"c(1, 7, 2, 8, 3, 9, 4, 10, 5, 11, 6, 12)",0,"A","unstable",0.01,TRUE,0,1460673764
1,1,"2","2016-04-14 15:42:44.058",1460673764057551872,1.52,"5",5.5,1.52,-1,192.3408,0.66667,100,1.8,0.33333,200,90,1,TRUE,0,0,0.05,TRUE,"c(1, 7, 2, 8, 3, 9, 4, 10, 5, 11, 6, 12)",0,"A","unstable",0.01,TRUE,0,1460673764
1,1,"2","2016-04-14 15:42:44.058",1460673764057551872,1.52,"6",5.5,1.52,-1,192.3408,0.66667,100,1.8,0.33333,200,90,1,TRUE,0,0,0.05,TRUE,"c(1, 7, 2, 8, 3, 9, 4, 10, 5, 11, 6, 12)",0,"A","unstable",0.01,TRUE,0,1460673764
1,1,"2","2016-04-14 15:42:45.011",1460673765010910208,1.8,"1",1,1.8,-1,119.88,0.66667,100,1.8,0.33333,200,90,1,TRUE,0,0,0.05,TRUE,"c(1, 7, 2, 8, 3, 9, 4, 10, 5, 11, 6, 12)",0,"A","unstable",0.01,TRUE,0,1460673765
1,1,"2","2016-04-14 15:42:45.011",1460673765010910208,1.69,"2",2,1.69,-1,180.0864,0.66667,100,1.8,0.33333,200,90,1,TRUE,0,0,0.05,TRUE,"c(1, 7, 2, 8, 3, 9, 4, 10, 5, 11, 6, 12)",0,"A","unstable",0.01,TRUE,0,1460673765
1,1,"2","2016-04-14 15:42:45.011",1460673765010910208,1.71,"3",3,1.71,-1,159.4404,0.66667,100,1.8,0.33333,200,90,1,TRUE,0,0,0.05,TRUE,"c(1, 7, 2, 8, 3, 9, 4, 10, 5, 11, 6, 12)",0,"A","unstable",0.01,TRUE,0,1460673765
1,1,"2","2016-04-14 15:42:45.011",1460673765010910208,1.77,"4",4,1.77,-1,141.4584,0.66667,100,1.8,0.33333,200,90,1,TRUE,0,0,0.05,TRUE,"c(1, 7, 2, 8, 3, 9, 4, 10, 5, 11, 6, 12)",0,"A","unstable",0.01,TRUE,0,1460673765
1,1,"2","2016-04-14 15:42:45.011",1460673765010910208,1.58,"5",5,1.58,-1,189.4104,0.66667,100,1.8,0.33333,200,90,1,TRUE,0,0,0.05,TRUE,"c(1, 7, 2, 8, 3, 9, 4, 10, 5, 11, 6, 12)",0,"A","unstable",0.01,TRUE,0,1460673765
1,1,"2","2016-04-14 15:42:45.011",1460673765010910208,1.51,"6",6,1.51,-1,201.132,0.66667,100,1.8,0.33333,200,90,1,TRUE,0,0,0.05,TRUE,"c(1, 7, 2, 8, 3, 9, 4, 10, 5, 11, 6, 12)",0,"A","unstable",0.01,TRUE,0,1460673765
1,1,"2","2016-04-14 15:42:46.051",1460673766051083776,1.8,"1",1,1.8,-1,119.88,0.66667,100,1.8,0.33333,200,90,1,TRUE,0,0,0.05,TRUE,"c(1, 7, 2, 8, 3, 9, 4, 10, 5, 11, 6, 12)",0,"A","unstable",0.01,TRUE,0,1460673766
1,1,"2","2016-04-14 15:42:46.051",1460673766051083776,1.69,"2",2,1.69,-1,180.0864,0.66667,100,1.8,0.33333,200,90,1,TRUE,0,0,0.05,TRUE,"c(1, 7, 2, 8, 3, 9, 4, 10, 5, 11, 6, 12)",0,"A","unstable",0.01,TRUE,0,1460673766
1,1,"2","2016-04-14 15:42:46.051",1460673766051083776,1.72,"3",3,1.72,-1,160.3728,0.66667,100,1.8,0.33333,200,90,1,TRUE,0,0,0.05,TRUE,"c(1, 7, 2, 8, 3, 9, 4, 10, 5, 11, 6, 12)",0,"A","unstable",0.01,TRUE,0,1460673766
1,1,"2","2016-04-14 15:42:46.051",1460673766051083776,1.77,"4",4,1.77,-1,141.4584,0.66667,100,1.8,0.33333,200,90,1,TRUE,0,0,0.05,TRUE,"c(1, 7, 2, 8, 3, 9, 4, 10, 5, 11, 6, 12)",0,"A","unstable",0.01,TRUE,0,1460673766
1,1,"2","2016-04-14 15:42:46.051",1460673766051083776,1.63,"5",5,1.63,-1,194.2056,0.66667,100,1.8,0.33333,200,90,1,TRUE,0,0,0.05,TRUE,"c(1, 7, 2, 8, 3, 9, 4, 10, 5, 11, 6, 12)",0,"A","unstable",0.01,TRUE,0,1460673766
1,1,"2","2016-04-14 15:42:46.051",1460673766051083776,1.52,"6",6,1.52,-1,202.464,0.66667,100,1.8,0.33333,200,90,1,TRUE,0,0,0.05,TRUE,"c(1, 7, 2, 8, 3, 9, 4, 10, 5, 11, 6, 12)",0,"A","unstable",0.01,TRUE,0,1460673766
1,1,"2","2016-04-14 15:42:47.095",1460673767094785024,1.8,"1",1.5,1.8,-1,131.868,0.66667,100,1.8,0.33333,200,90,1,TRUE,0,0,0.05,TRUE,"c(1, 7, 2, 8, 3, 9, 4, 10, 5, 11, 6, 12)",0,"A","unstable",0.01,TRUE,0,1460673767
1,1,"2","2016-04-14 15:42:47.095",1460673767094785024,1.69,"2",1.5,1.69,-1,191.3418,0.66667,100,1.8,0.33333,200,90,1,TRUE,0,0,0.05,TRUE,"c(1, 7, 2, 8, 3, 9, 4, 10, 5, 11, 6, 12)",0,"A","unstable",0.01,TRUE,0,1460673767
1,1,"2","2016-04-14 15:42:47.095",1460673767094785024,1.8,"3",3,1.8,-1,131.868,0.66667,100,1.8,0.33333,200,90,1,TRUE,0,0,0.05,TRUE,"c(1, 7, 2, 8, 3, 9, 4, 10, 5, 11, 6, 12)",0,"A","unstable",0.01,TRUE,0,1460673767
1,1,"2","2016-04-14 15:42:47.095",1460673767094785024,1.79,"4",4.5,1.79,-1,166.8996,0.66667,100,1.8,0.33333,200,90,1,TRUE,0,0,0.05,TRUE,"c(1, 7, 2, 8, 3, 9, 4, 10, 5, 11, 6, 12)",0,"A","unstable",0.01,TRUE,0,1460673767
1,1,"2","2016-04-14 15:42:47.095",1460673767094785024,1.7,"5",4.5,1.7,-1,191.3418,0.66667,100,1.8,0.33333,200,90,1,TRUE,0,0,0.05,TRUE,"c(1, 7, 2, 8, 3, 9, 4, 10, 5, 11, 6, 12)",0,"A","unstable",0.01,TRUE,0,1460673767
1,1,"2","2016-04-14 15:42:47.095",1460673767094785024,1.59,"6",6,1.59,-1,209.124,0.66667,100,1.8,0.33333,200,90,1,TRUE,0,0,0.05,TRUE,"c(1, 7, 2, 8, 3, 9, 4, 10, 5, 11, 6, 12)",0,"A","unstable",0.01,TRUE,0,1460673767
1,1,"2","2016-04-14 15:42:48.043",1460673768043324672,1.8,"1",1.5,1.8,-1,131.868,0.66667,100,1.8,0.33333,200,90,1,TRUE,0,0,0.05,TRUE,"c(1, 7, 2, 8, 3, 9, 4, 10, 5, 11, 6, 12)",0,"A","unstable",0.01,TRUE,0,1460673768
1,1,"2","2016-04-14 15:42:48.043",1460673768043324672,1.69,"2",1.5,1.69,-1,202.5972,0.66667,100,1.8,0.33333,200,90,1,TRUE,0,0,0.05,TRUE,"c(1, 7, 2, 8, 3, 9, 4, 10, 5, 11, 6, 12)",0,"A","unstable",0.01,TRUE,0,1460673768
1,1,"2","2016-04-14 15:42:48.043",1460673768043324672,1.8,"3",3,1.8,-1,131.868,0.66667,100,1.8,0.33333,200,90,1,TRUE,0,0,0.05,TRUE,"c(1, 7, 2, 8, 3, 9, 4, 10, 5, 11, 6, 12)",0,"A","unstable",0.01,TRUE,0,1460673768
1,1,"2","2016-04-14 15:42:48.043",1460673768043324672,1.77,"4",4,1.77,-1,165.0348,0.66667,100,1.8,0.33333,200,90,1,TRUE,0,0,0.05,TRUE,"c(1, 7, 2, 8, 3, 9, 4, 10, 5, 11, 6, 12)",0,"A","unstable",0.01,TRUE,0,1460673768
1,1,"2","2016-04-14 15:42:48.043",1460673768043324672,1.58,"5",5,1.65,-1,181.152,0.66667,100,1.8,0.33333,200,90,1,TRUE,0,0,0.05,TRUE,"c(1, 7, 2, 8, 3, 9, 4, 10, 5, 11, 6, 12)",0,"A","unstable",0.01,TRUE,0,1460673768
1,1,"2","2016-04-14 15:42:48.043",1460673768043324672,1.59,"6",6,1.59,-1,211.788,0.66667,100,1.8,0.33333,200,90,1,TRUE,0,0,0.05,TRUE,"c(1, 7, 2, 8, 3, 9, 4, 10, 5, 11, 6, 12)",0,"A","unstable",0.01,TRUE,0,1460673768
1,1,"2","2016-04-14 15:42:49.089",1460673769088605184,1.8,"1",1.5,1.8,-1,131.868,0.66667,100,1.8,0.33333,200,90,1,TRUE,0,0,0.05,TRUE,"c(1, 7, 2, 8, 3, 9, 4, 10, 5, 11, 6, 12)",0,"A","unstable",0.01,TRUE,0,1460673769
1,1,"2","2016-04-14 15:42:49.089",1460673769088605184,1.69,"2",1.5,1.69,-1,180.0864,0.66667,100,1.8,0.33333,200,90,1,TRUE,0,0,0.05,TRUE,"c(1, 7, 2, 8, 3, 9, 4, 10, 5, 11, 6, 12)",0,"A","unstable",0.01,TRUE,0,1460673769
1,1,"2","2016-04-14 15:42:49.089",1460673769088605184,1.8,"3",3,1.8,-1,131.868,0.66667,100,1.8,0.33333,200,90,1,TRUE,0,0,0.05,TRUE,"c(1, 7, 2, 8, 3, 9, 4, 10, 5, 11, 6, 12)",0,"A","unstable",0.01,TRUE,0,1460673769
1,1,"2","2016-04-14 15:42:49.089",1460673769088605184,1.79,"4",4,1.79,-1,166.8996,0.66667,100,1.8,0.33333,200,90,1,TRUE,0,0,0.05,TRUE,"c(1, 7, 2, 8, 3, 9, 4, 10, 5, 11, 6, 12)",0,"A","unstable",0.01,TRUE,0,1460673769
1,1,"2","2016-04-14 15:42:49.089",1460673769088605184,1.54,"5",5,1.54,-1,205.128,0.66667,100,1.8,0.33333,200,90,1,TRUE,0,0,0.05,TRUE,"c(1, 7, 2, 8, 3, 9, 4, 10, 5, 11, 6, 12)",0,"A","unstable",0.01,TRUE,0,1460673769
1,1,"2","2016-04-14 15:42:49.089",1460673769088605184,1.57,"6",6,1.57,-1,188.2116,0.66667,100,1.8,0.33333,200,90,1,TRUE,0,0,0.05,TRUE,"c(1, 7, 2, 8, 3, 9, 4, 10, 5, 11, 6, 12)",0,"A","unstable",0.01,TRUE,0,1460673769
1,1,"2","2016-04-14 15:42:50.024",1460673770024342528,1.8,"1",1.5,1.8,-1,131.868,0.66667,100,1.8,0.33333,200,90,1,TRUE,0,0,0.05,TRUE,"c(1, 7, 2, 8, 3, 9, 4, 10, 5, 11, 6, 12)",0,"A","unstable",0.01,TRUE,0,1460673770
1,1,"2","2016-04-14 15:42:50.024",1460673770024342528,1.71,"2",1.5,1.71,-1,182.2176,0.66667,100,1.8,0.33333,200,90,1,TRUE,0,0,0.05,TRUE,"c(1, 7, 2, 8, 3, 9, 4, 10, 5, 11, 6, 12)",0,"A","unstable",0.01,TRUE,0,1460673770
1,1,"2","2016-04-14 15:42:50.024",1460673770024342528,1.8,"3",3,1.8,-1,131.868,0.66667,100,1.8,0.33333,200,90,1,TRUE,0,0,0.05,TRUE,"c(1, 7, 2, 8, 3, 9, 4, 10, 5, 11, 6, 12)",0,"A","unstable",0.01,TRUE,0,1460673770
1,1,"2","2016-04-14 15:42:50.024",1460673770024342528,1.76,"4",4,1.76,-1,164.1024,0.66667,100,1.8,0.33333,200,90,1,TRUE,0,0,0.05,TRUE,"c(1, 7, 2, 8, 3, 9, 4, 10, 5, 11, 6, 12)",0,"A","unstable",0.01,TRUE,0,1460673770
1,1,"2","2016-04-14 15:42:50.024",1460673770024342528,1.55,"5",5,1.55,-1,206.46,0.66667,100,1.8,0.33333,200,90,1,TRUE,0,0,0.05,TRUE,"c(1, 7, 2, 8, 3, 9, 4, 10, 5, 11, 6, 12)",0,"A","unstable",0.01,TRUE,0,1460673770
1,1,"2","2016-04-14 15:42:50.024",1460673770024342528,1.57,"6",6,1.57,-1,188.2116,0.66667,100,1.8,0.33333,200,90,1,TRUE,0,0,0.05,TRUE,"c(1, 7, 2, 8, 3, 9, 4, 10, 5, 11, 6, 12)",0,"A","unstable",0.01,TRUE,0,1460673770
1,1,"2","2016-04-14 15:42:51.076",1460673771075787520,1.8,"1",1.5,1.8,-1,131.868,0.66667,100,1.8,0.33333,200,90,1,TRUE,0,0,0.05,TRUE,"c(1, 7, 2, 8, 3, 9, 4, 10, 5, 11, 6, 12)",0,"A","unstable",0.01,TRUE,0,1460673771
1,1,"2","2016-04-14 15:42:51.076",1460673771075787520,1.58,"2",1.5,1.58,-1,189.4104,0.66667,100,1.8,0.33333,200,90,1,TRUE,0,0,0.05,TRUE,"c(1, 7, 2, 8, 3, 9, 4, 10, 5, 11, 6, 12)",0,"A","unstable",0.01,TRUE,0,1460673771
1,1,"2","2016-04-14 15:42:51.076",1460673771075787520,1.8,"3",3,1.8,-1,131.868,0.66667,100,1.8,0.33333,200,90,1,TRUE,0,0,0.05,TRUE,"c(1, 7, 2, 8, 3, 9, 4, 10, 5, 11, 6, 12)",0,"A","unstable",0.01,TRUE,0,1460673771
1,1,"2","2016-04-14 15:42:51.076",1460673771075787520,1.74,"4",4,1.74,-1,162.2376,0.66667,100,1.8,0.33333,200,90,1,TRUE,0,0,0.05,TRUE,"c(1, 7, 2, 8, 3, 9, 4, 10, 5, 11, 6, 12)",0,"A","unstable",0.01,TRUE,0,1460673771
1,1,"2","2016-04-14 15:42:51.076",1460673771075787520,1.65,"5",5,1.65,-1,175.824,0.66667,100,1.8,0.33333,200,90,1,TRUE,0,0,0.05,TRUE,"c(1, 7, 2, 8, 3, 9, 4, 10, 5, 11, 6, 12)",0,"A","unstable",0.01,TRUE,0,1460673771
1,1,"2","2016-04-14 15:42:51.076",1460673771075787520,1.57,"6",6,1.57,-1,209.124,0.66667,100,1.8,0.33333,200,90,1,TRUE,0,0,0.05,TRUE,"c(1, 7, 2, 8, 3, 9, 4, 10, 5, 11, 6, 12)",0,"A","unstable",0.01,TRUE,0,1460673771
1,1,"2","2016-04-14 15:42:52.024",1460673772024456448,1.8,"1",1.5,1.8,-1,131.868,0.66667,100,1.8,0.33333,200,90,1,TRUE,0,0,0.05,TRUE,"c(1, 7, 2, 8, 3, 9, 4, 10, 5, 11, 6, 12)",0,"A","unstable",0.01,TRUE,0,1460673772
1,1,"2","2016-04-14 15:42:52.024",1460673772024456448,1.56,"2",1.5,1.56,-1,207.792,0.66667,100,1.8,0.33333,200,90,1,TRUE,0,0,0.05,TRUE,"c(1, 7, 2, 8, 3, 9, 4, 10, 5, 11, 6, 12)",0,"A","unstable",0.01,TRUE,0,1460673772
1,1,"2","2016-04-14 15:42:52.024",1460673772024456448,1.79,"3",3,1.79,-1,131.868,0.66667,100,1.8,0.33333,200,90,1,TRUE,0,0,0.05,TRUE,"c(1, 7, 2, 8, 3, 9, 4, 10, 5, 11, 6, 12)",0,"A","unstable",0.01,TRUE,0,1460673772
1,1,"2","2016-04-14 15:42:52.024",1460673772024456448,1.68,"4",4,1.68,-1,157.5756,0.66667,100,1.8,0.33333,200,90,1,TRUE,0,0,0.05,TRUE,"c(1, 7, 2, 8, 3, 9, 4, 10, 5, 11, 6, 12)",0,"A","unstable",0.01,TRUE,0,1460673772
1,1,"2","2016-04-14 15:42:52.024",1460673772024456448,1.67,"5",5,1.67,-1,175.824,0.66667,100,1.8,0.33333,200,90,1,TRUE,0,0,0.05,TRUE,"c(1, 7, 2, 8, 3, 9, 4, 10, 5, 11, 6, 12)",0,"A","unstable",0.01,TRUE,0,1460673772
1,1,"2","2016-04-14 15:42:52.024",1460673772024456448,1.57,"6",6,1.57,-1,188.2116,0.66667,100,1.8,0.33333,200,90,1,TRUE,0,0,0.05,TRUE,"c(1, 7, 2, 8, 3, 9, 4, 10, 5, 11, 6, 12)",0,"A","unstable",0.01,TRUE,0,1460673772
1,1,"2","2016-04-14 15:42:53.069",1460673773069016320,1.8,"1",1,1.8,-1,119.88,0.66667,100,1.8,0.33333,200,90,1,TRUE,0,0,0.05,TRUE,"c(1, 7, 2, 8, 3, 9, 4, 10, 5, 11, 6, 12)",0,"A","unstable",0.01,TRUE,0,1460673773
1,1,"2","2016-04-14 15:42:53.069",1460673773069016320,1.56,"2",2,1.56,-1,187.0128,0.66667,100,1.8,0.33333,200,90,1,TRUE,0,0,0.05,TRUE,"c(1, 7, 2, 8, 3, 9, 4, 10, 5, 11, 6, 12)",0,"A","unstable",0.01,TRUE,0,1460673773
1,1,"2","2016-04-14 15:42:53.069",1460673773069016320,1.42,"3",3,1.42,-1,193.14,0.66667,100,1.8,0.33333,200,90,1,TRUE,0,0,0.05,TRUE,"c(1, 7, 2, 8, 3, 9, 4, 10, 5, 11, 6, 12)",0,"A","unstable",0.01,TRUE,0,1460673773
1,1,"2","2016-04-14 15:42:53.069",1460673773069016320,1.66,"4",4,1.66,-1,154.7784,0.66667,100,1.8,0.33333,200,90,1,TRUE,0,0,0.05,TRUE,"c(1, 7, 2, 8, 3, 9, 4, 10, 5, 11, 6, 12)",0,"A","unstable",0.01,TRUE,0,1460673773
1,1,"2","2016-04-14 15:42:53.069",1460673773069016320,1.76,"5",5,1.76,-1,140.6592,0.66667,100,1.8,0.33333,200,90,1,TRUE,0,0,0.05,TRUE,"c(1, 7, 2, 8, 3, 9, 4, 10, 5, 11, 6, 12)",0,"A","unstable",0.01,TRUE,0,1460673773
1,1,"2","2016-04-14 15:42:53.069",1460673773069016320,1.57,"6",6,1.57,-1,167.2992,0.66667,100,1.8,0.33333,200,90,1,TRUE,0,0,0.05,TRUE,"c(1, 7, 2, 8, 3, 9, 4, 10, 5, 11, 6, 12)",0,"A","unstable",0.01,TRUE,0,1460673773
1,1,"2","2016-04-14 15:42:54.059",1460673774058617344,1.8,"1",1,1.8,-1,119.88,0.66667,100,1.8,0.33333,200,90,1,TRUE,0,0,0.05,TRUE,"c(1, 7, 2, 8, 3, 9, 4, 10, 5, 11, 6, 12)",0,"A","unstable",0.01,TRUE,0,1460673774
1,1,"2","2016-04-14 15:42:54.059",1460673774058617344,1.43,"2",2,1.43,-1,171.4284,0.66667,100,1.8,0.33333,200,90,1,TRUE,0,0,0.05,TRUE,"c(1, 7, 2, 8, 3, 9, 4, 10, 5, 11, 6, 12)",0,"A","unstable",0.01,TRUE,0,1460673774
1,1,"2","2016-04-14 15:42:54.059",1460673774058617344,1.35,"3",3,1.35,-1,182.484,0.66667,100,1.8,0.33333,200,90,1,TRUE,0,0,0.05,TRUE,"c(1, 7, 2, 8, 3, 9, 4, 10, 5, 11, 6, 12)",0,"A","unstable",0.01,TRUE,0,1460673774
1,1,"2","2016-04-14 15:42:54.059",1460673774058617344,1.67,"4",4,1.67,-1,134.2656,0.66667,100,1.8,0.33333,200,90,1,TRUE,0,0,0.05,TRUE,"c(1, 7, 2, 8, 3, 9, 4, 10, 5, 11, 6, 12)",0,"A","unstable",0.01,TRUE,0,1460673774
1,1,"2","2016-04-14 15:42:54.059",1460673774058617344,1.66,"5",5,1.66,-1,155.7108,0.66667,100,1.8,0.33333,200,90,1,TRUE,0,0,0.05,TRUE,"c(1, 7, 2, 8, 3, 9, 4, 10, 5, 11, 6, 12)",0,"A","unstable",0.01,TRUE,0,1460673774
1,1,"2","2016-04-14 15:42:54.059",1460673774058617344,1.56,"6",6,1.56,-1,166.2336,0.66667,100,1.8,0.33333,200,90,1,TRUE,0,0,0.05,TRUE,"c(1, 7, 2, 8, 3, 9, 4, 10, 5, 11, 6, 12)",0,"A","unstable",0.01,TRUE,0,1460673774
1,1,"2","2016-04-14 15:42:55.029",1460673775029422592,1.72,"1",1,1.72,-1,114.552,0.66667,100,1.8,0.33333,200,90,1,TRUE,0,0,0.05,TRUE,"c(1, 7, 2, 8, 3, 9, 4, 10, 5, 11, 6, 12)",0,"A","unstable",0.01,TRUE,0,1460673775
1,1,"2","2016-04-14 15:42:55.029",1460673775029422592,1.24,"2",2,1.24,-1,165.168,0.66667,100,1.8,0.33333,200,90,1,TRUE,0,0,0.05,TRUE,"c(1, 7, 2, 8, 3, 9, 4, 10, 5, 11, 6, 12)",0,"A","unstable",0.01,TRUE,0,1460673775
1,1,"2","2016-04-14 15:42:55.029",1460673775029422592,1.35,"3",3,1.35,-1,161.838,0.66667,100,1.8,0.33333,200,90,1,TRUE,0,0,0.05,TRUE,"c(1, 7, 2, 8, 3, 9, 4, 10, 5, 11, 6, 12)",0,"A","unstable",0.01,TRUE,0,1460673775
1,1,"2","2016-04-14 15:42:55.029",1460673775029422592,1.64,"4",4,1.64,-1,132.6672,0.66667,100,1.8,0.33333,200,90,1,TRUE,0,0,0.05,TRUE,"c(1, 7, 2, 8, 3, 9, 4, 10, 5, 11, 6, 12)",0,"A","unstable",0.01,TRUE,0,1460673775
1,1,"2","2016-04-14 15:42:55.029",1460673775029422592,1.65,"5",5,1.65,-1,153.846,0.66667,100,1.8,0.33333,200,90,1,TRUE,0,0,0.05,TRUE,"c(1, 7, 2, 8, 3, 9, 4, 10, 5, 11, 6, 12)",0,"A","unstable",0.01,TRUE,0,1460673775
1,1,"2","2016-04-14 15:42:55.029",1460673775029422592,1.56,"6",6,1.56,-1,166.2336,0.66667,100,1.8,0.33333,200,90,1,TRUE,0,0,0.05,TRUE,"c(1, 7, 2, 8, 3, 9, 4, 10, 5, 11, 6, 12)",0,"A","unstable",0.01,TRUE,0,1460673775
1,1,"2","2016-04-14 15:42:56.092",1460673776092312576,1.8,"1",1,1.8,-1,118.548,0.66667,100,1.8,0.33333,200,90,1,TRUE,0,0,0.05,TRUE,"c(1, 7, 2, 8, 3, 9, 4, 10, 5, 11, 6, 12)",0,"A","unstable",0.01,TRUE,0,1460673776
1,1,"2","2016-04-14 15:42:56.092",1460673776092312576,1.31,"2",2,1.31,-1,157.0428,0.66667,100,1.8,0.33333,200,90,1,TRUE,0,0,0.05,TRUE,"c(1, 7, 2, 8, 3, 9, 4, 10, 5, 11, 6, 12)",0,"A","unstable",0.01,TRUE,0,1460673776
1,1,"2","2016-04-14 15:42:56.092",1460673776092312576,1.27,"3",3,1.27,-1,169.164,0.66667,100,1.8,0.33333,200,90,1,TRUE,0,0,0.05,TRUE,"c(1, 7, 2, 8, 3, 9, 4, 10, 5, 11, 6, 12)",0,"A","unstable",0.01,TRUE,0,1460673776
1,1,"2","2016-04-14 15:42:56.092",1460673776092312576,1.7,"4",4,1.69,-1,131.0688,0.66667,100,1.8,0.33333,200,90,1,TRUE,0,0,0.05,TRUE,"c(1, 7, 2, 8, 3, 9, 4, 10, 5, 11, 6, 12)",0,"A","unstable",0.01,TRUE,0,1460673776
1,1,"2","2016-04-14 15:42:56.092",1460673776092312576,1.58,"5",5,1.58,-1,148.2516,0.66667,100,1.8,0.33333,200,90,1,TRUE,0,0,0.05,TRUE,"c(1, 7, 2, 8, 3, 9, 4, 10, 5, 11, 6, 12)",0,"A","unstable",0.01,TRUE,0,1460673776
1,1,"2","2016-04-14 15:42:56.092",1460673776092312576,1.51,"6",6,1.51,-1,160.9056,0.66667,100,1.8,0.33333,200,90,1,TRUE,0,0,0.05,TRUE,"c(1, 7, 2, 8, 3, 9, 4, 10, 5, 11, 6, 12)",0,"A","unstable",0.01,TRUE,0,1460673776
1,1,"2","2016-04-14 15:42:57.055",1460673777055023104,1.64,"1",1,1.64,-1,133.4664,0.66667,100,1.8,0.33333,200,90,1,TRUE,0,0,0.05,TRUE,"c(1, 7, 2, 8, 3, 9, 4, 10, 5, 11, 6, 12)",0,"A","unstable",0.01,TRUE,0,1460673777
1,1,"2","2016-04-14 15:42:57.055",1460673777055023104,1.55,"2",2,1.55,-1,154.845,0.66667,100,1.8,0.33333,200,90,1,TRUE,0,0,0.05,TRUE,"c(1, 7, 2, 8, 3, 9, 4, 10, 5, 11, 6, 12)",0,"A","unstable",0.01,TRUE,0,1460673777
1,1,"2","2016-04-14 15:42:57.055",1460673777055023104,1.26,"3",3.5,1.26,-1,167.832,0.66667,100,1.8,0.33333,200,90,1,TRUE,0,0,0.05,TRUE,"c(1, 7, 2, 8, 3, 9, 4, 10, 5, 11, 6, 12)",0,"A","unstable",0.01,TRUE,0,1460673777
1,1,"2","2016-04-14 15:42:57.055",1460673777055023104,1.8,"4",3.5,1.8,-1,119.88,0.66667,100,1.8,0.33333,200,90,1,TRUE,0,0,0.05,TRUE,"c(1, 7, 2, 8, 3, 9, 4, 10, 5, 11, 6, 12)",0,"A","unstable",0.01,TRUE,0,1460673777
1,1,"2","2016-04-14 15:42:57.055",1460673777055023104,1.55,"5",5,1.55,-1,154.845,0.66667,100,1.8,0.33333,200,90,1,TRUE,0,0,0.05,TRUE,"c(1, 7, 2, 8, 3, 9, 4, 10, 5, 11, 6, 12)",0,"A","unstable",0.01,TRUE,0,1460673777
1,1,"2","2016-04-14 15:42:57.055",1460673777055023104,1.53,"6",6,1.53,-1,183.4164,0.66667,100,1.8,0.33333,200,90,1,TRUE,0,0,0.05,TRUE,"c(1, 7, 2, 8, 3, 9, 4, 10, 5, 11, 6, 12)",0,"A","unstable",0.01,TRUE,0,1460673777
1,1,"2","2016-04-14 15:42:58.102",1460673778101754112,1.59,"1",1,1.59,-1,127.0728,0.66667,100,1.8,0.33333,200,90,1,TRUE,0,0,0.05,TRUE,"c(1, 7, 2, 8, 3, 9, 4, 10, 5, 11, 6, 12)",0,"A","unstable",0.01,TRUE,0,1460673778
1,1,"2","2016-04-14 15:42:58.102",1460673778101754112,1.41,"2",2,1.41,-1,169.0308,0.66667,100,1.8,0.33333,200,90,1,TRUE,0,0,0.05,TRUE,"c(1, 7, 2, 8, 3, 9, 4, 10, 5, 11, 6, 12)",0,"A","unstable",0.01,TRUE,0,1460673778
1,1,"2","2016-04-14 15:42:58.102",1460673778101754112,1.19,"3",3,1.19,-1,158.508,0.66667,100,1.8,0.33333,200,90,1,TRUE,0,0,0.05,TRUE,"c(1, 7, 2, 8, 3, 9, 4, 10, 5, 11, 6, 12)",0,"A","unstable",0.01,TRUE,0,1460673778
1,1,"2","2016-04-14 15:42:58.102",1460673778101754112,1.8,"4",4,1.8,-1,119.88,0.66667,100,1.8,0.33333,200,90,1,TRUE,0,0,0.05,TRUE,"c(1, 7, 2, 8, 3, 9, 4, 10, 5, 11, 6, 12)",0,"A","unstable",0.01,TRUE,0,1460673778
1,1,"2","2016-04-14 15:42:58.102",1460673778101754112,1.54,"5",5,1.54,-1,143.5896,0.66667,100,1.8,0.33333,200,90,1,TRUE,0,0,0.05,TRUE,"c(1, 7, 2, 8, 3, 9, 4, 10, 5, 11, 6, 12)",0,"A","unstable",0.01,TRUE,0,1460673778
1,1,"2","2016-04-14 15:42:58.102",1460673778101754112,1.51,"6",6,1.51,-1,160.9056,0.66667,100,1.8,0.33333,200,90,1,TRUE,0,0,0.05,TRUE,"c(1, 7, 2, 8, 3, 9, 4, 10, 5, 11, 6, 12)",0,"A","unstable",0.01,TRUE,0,1460673778
1,1,"2","2016-04-14 15:42:59.001",1460673779001471488,1.78,"1",1,1.78,-1,118.548,0.66667,100,1.8,0.33333,200,90,1,TRUE,0,0,0.05,TRUE,"c(1, 7, 2, 8, 3, 9, 4, 10, 5, 11, 6, 12)",0,"A","unstable",0.01,TRUE,0,1460673779
1,1,"2","2016-04-14 15:42:59.001",1460673779001471488,1.45,"2",2,1.45,-1,154.512,0.66667,100,1.8,0.33333,200,90,1,TRUE,0,0,0.05,TRUE,"c(1, 7, 2, 8, 3, 9, 4, 10, 5, 11, 6, 12)",0,"A","unstable",0.01,TRUE,0,1460673779
1,1,"2","2016-04-14 15:42:59.001",1460673779001471488,1.18,"3",3,1.18,-1,157.176,0.66667,100,1.8,0.33333,200,90,1,TRUE,0,0,0.05,TRUE,"c(1, 7, 2, 8, 3, 9, 4, 10, 5, 11, 6, 12)",0,"A","unstable",0.01,TRUE,0,1460673779
1,1,"2","2016-04-14 15:42:59.001",1460673779001471488,1.71,"4",4,1.71,-1,140.6592,0.66667,100,1.8,0.33333,200,90,1,TRUE,0,0,0.05,TRUE,"c(1, 7, 2, 8, 3, 9, 4, 10, 5, 11, 6, 12)",0,"A","unstable",0.01,TRUE,0,1460673779
1,1,"2","2016-04-14 15:42:59.001",1460673779001471488,1.53,"5",5,1.53,-1,143.5896,0.66667,100,1.8,0.33333,200,90,1,TRUE,0,0,0.05,TRUE,"c(1, 7, 2, 8, 3, 9, 4, 10, 5, 11, 6, 12)",0,"A","unstable",0.01,TRUE,0,1460673779
1,1,"2","2016-04-14 15:42:59.001",1460673779001471488,1.42,"6",6,1.42,-1,171.4284,0.66667,100,1.8,0.33333,200,90,1,TRUE,0,0,0.05,TRUE,"c(1, 7, 2, 8, 3, 9, 4, 10, 5, 11, 6, 12)",0,"A","unstable",0.01,TRUE,0,1460673779
1,1,"2","2016-04-14 15:43:00.044",1460673780044277760,1.78,"1",1,1.78,-1,118.548,0.66667,100,1.8,0.33333,200,90,1,TRUE,0,0,0.05,TRUE,"c(1, 7, 2, 8, 3, 9, 4, 10, 5, 11, 6, 12)",0,"A","unstable",0.01,TRUE,0,1460673780
1,1,"2","2016-04-14 15:43:00.044",1460673780044277760,1.5,"2",2,1.5,-1,139.86,0.66667,100,1.8,0.33333,200,90,1,TRUE,0,0,0.05,TRUE,"c(1, 7, 2, 8, 3, 9, 4, 10, 5, 11, 6, 12)",0,"A","unstable",0.01,TRUE,0,1460673780
1,1,"2","2016-04-14 15:43:00.044",1460673780044277760,1.18,"3",3,1.18,-1,157.176,0.66667,100,1.8,0.33333,200,90,1,TRUE,0,0,0.05,TRUE,"c(1, 7, 2, 8, 3, 9, 4, 10, 5, 11, 6, 12)",0,"A","unstable",0.01,TRUE,0,1460673780
1,1,"2","2016-04-14 15:43:00.044",1460673780044277760,1.67,"4",4,1.67,-1,133.4664,0.66667,100,1.8,0.33333,200,90,1,TRUE,0,0,0.05,TRUE,"c(1, 7, 2, 8, 3, 9, 4, 10, 5, 11, 6, 12)",0,"A","unstable",0.01,TRUE,0,1460673780
1,1,"2","2016-04-14 15:43:00.044",1460673780044277760,1.38,"5",5,1.38,-1,169.0308,0.66667,100,1.8,0.33333,200,90,1,TRUE,0,0,0.05,TRUE,"c(1, 7, 2, 8, 3, 9, 4, 10, 5, 11, 6, 12)",0,"A","unstable",0.01,TRUE,0,1460673780
1,1,"2","2016-04-14 15:43:00.044",1460673780044277760,1.42,"6",6,1.42,-1,151.3152,0.66667,100,1.8,0.33333,200,90,1,TRUE,0,0,0.05,TRUE,"c(1, 7, 2, 8, 3, 9, 4, 10, 5, 11, 6, 12)",0,"A","unstable",0.01,TRUE,0,1460673780
1,1,"2","2016-04-14 15:43:01.020",1460673781021219328,1.78,"1",1,1.78,-1,118.548,0.66667,100,1.8,0.33333,200,90,1,TRUE,0,0,0.05,TRUE,"c(1, 7, 2, 8, 3, 9, 4, 10, 5, 11, 6, 12)",0,"A","unstable",0.01,TRUE,0,1460673781
1,1,"2","2016-04-14 15:43:01.020",1460673781021219328,1.59,"2",2,1.59,-1,148.2516,0.66667,100,1.8,0.33333,200,90,1,TRUE,0,0,0.05,TRUE,"c(1, 7, 2, 8, 3, 9, 4, 10, 5, 11, 6, 12)",0,"A","unstable",0.01,TRUE,0,1460673781
1,1,"2","2016-04-14 15:43:01.020",1460673781021219328,1.45,"3",3,1.4,-1,161.838,0.66667,100,1.8,0.33333,200,90,1,TRUE,0,0,0.05,TRUE,"c(1, 7, 2, 8, 3, 9, 4, 10, 5, 11, 6, 12)",0,"A","unstable",0.01,TRUE,0,1460673781
1,1,"2","2016-04-14 15:43:01.020",1460673781021219328,1.63,"4",4,1.63,-1,130.2696,0.66667,100,1.8,0.33333,200,90,1,TRUE,0,0,0.05,TRUE,"c(1, 7, 2, 8, 3, 9, 4, 10, 5, 11, 6, 12)",0,"A","unstable",0.01,TRUE,0,1460673781
1,1,"2","2016-04-14 15:43:01.020",1460673781021219328,1.09,"5",5,1.09,-1,146.52,0.66667,100,1.8,0.33333,200,90,1,TRUE,0,0,0.05,TRUE,"c(1, 7, 2, 8, 3, 9, 4, 10, 5, 11, 6, 12)",0,"A","unstable",0.01,TRUE,0,1460673781
1,1,"2","2016-04-14 15:43:01.020",1460673781021219328,1.47,"6",6,1.47,-1,152.3808,0.66667,100,1.8,0.33333,200,90,1,TRUE,0,0,0.05,TRUE,"c(1, 7, 2, 8, 3, 9, 4, 10, 5, 11, 6, 12)",0,"A","unstable",0.01,TRUE,0,1460673781
1,1,"2","2016-04-14 15:43:02.067",1460673782066521600,1.78,"1",1,1.78,-1,118.548,0.66667,100,1.8,0.33333,200,90,1,TRUE,0,0,0.05,TRUE,"c(1, 7, 2, 8, 3, 9, 4, 10, 5, 11, 6, 12)",0,"A","unstable",0.01,TRUE,0,1460673782
1,1,"2","2016-04-14 15:43:02.067",1460673782066521600,1.52,"2",2,1.52,-1,182.2176,0.66667,100,1.8,0.33333,200,90,1,TRUE,0,0,0.05,TRUE,"c(1, 7, 2, 8, 3, 9, 4, 10, 5, 11, 6, 12)",0,"A","unstable",0.01,TRUE,0,1460673782
1,1,"2","2016-04-14 15:43:02.067",1460673782066521600,1.67,"3",3,1.67,-1,132.6672,0.66667,100,1.8,0.33333,200,90,1,TRUE,0,0,0.05,TRUE,"c(1, 7, 2, 8, 3, 9, 4, 10, 5, 11, 6, 12)",0,"A","unstable",0.01,TRUE,0,1460673782
1,1,"2","2016-04-14 15:43:02.067",1460673782066521600,1.61,"4",4,1.61,-1,151.0488,0.66667,100,1.8,0.33333,200,90,1,TRUE,0,0,0.05,TRUE,"c(1, 7, 2, 8, 3, 9, 4, 10, 5, 11, 6, 12)",0,"A","unstable",0.01,TRUE,0,1460673782
1,1,"2","2016-04-14 15:43:02.067",1460673782066521600,1.09,"5",5,1.09,-1,145.188,0.66667,100,1.8,0.33333,200,90,1,TRUE,0,0,0.05,TRUE,"c(1, 7, 2, 8, 3, 9, 4, 10, 5, 11, 6, 12)",0,"A","unstable",0.01,TRUE,0,1460673782
1,1,"2","2016-04-14 15:43:02.067",1460673782066521600,1.54,"6",6,1.54,-1,164.1024,0.66667,100,1.8,0.33333,200,90,1,TRUE,0,0,0.05,TRUE,"c(1, 7, 2, 8, 3, 9, 4, 10, 5, 11, 6, 12)",0,"A","unstable",0.01,TRUE,0,1460673782
1,1,"2","2016-04-14 15:43:03.050",1460673783049610496,1.78,"1",1,1.78,-1,118.548,0.66667,100,1.8,0.33333,200,90,1,TRUE,0,0,0.05,TRUE,"c(1, 7, 2, 8, 3, 9, 4, 10, 5, 11, 6, 12)",0,"A","unstable",0.01,TRUE,0,1460673783
1,1,"2","2016-04-14 15:43:03.050",1460673783049610496,1.5,"2",2,1.5,-1,159.84,0.66667,100,1.8,0.33333,200,90,1,TRUE,0,0,0.05,TRUE,"c(1, 7, 2, 8, 3, 9, 4, 10, 5, 11, 6, 12)",0,"A","unstable",0.01,TRUE,0,1460673783
1,1,"2","2016-04-14 15:43:03.050",1460673783049610496,1.45,"3",3,1.45,-1,169.0308,0.66667,100,1.8,0.33333,200,90,1,TRUE,0,0,0.05,TRUE,"c(1, 7, 2, 8, 3, 9, 4, 10, 5, 11, 6, 12)",0,"A","unstable",0.01,TRUE,0,1460673783
1,1,"2","2016-04-14 15:43:03.050",1460673783049610496,1.57,"4",4,1.57,-1,126.2736,0.66667,100,1.8,0.33333,200,90,1,TRUE,0,0,0.05,TRUE,"c(1, 7, 2, 8, 3, 9, 4, 10, 5, 11, 6, 12)",0,"A","unstable",0.01,TRUE,0,1460673783
1,1,"2","2016-04-14 15:43:03.050",1460673783049610496,1.09,"5",5,1.09,-1,145.188,0.66667,100,1.8,0.33333,200,90,1,TRUE,0,0,0.05,TRUE,"c(1, 7, 2, 8, 3, 9, 4, 10, 5, 11, 6, 12)",0,"A","unstable",0.01,TRUE,0,1460673783
1,1,"2","2016-04-14 15:43:03.050",1460673783049610496,1.55,"6",6,1.55,-1,145.4544,0.66667,100,1.8,0.33333,200,90,1,TRUE,0,0,0.05,TRUE,"c(1, 7, 2, 8, 3, 9, 4, 10, 5, 11, 6, 12)",0,"A","unstable",0.01,TRUE,0,1460673783
1,1,"2","2016-04-14 15:43:04.013",1460673784013177856,1.78,"1",1,1.78,-1,118.548,0.66667,100,1.8,0.33333,200,90,1,TRUE,0,0,0.05,TRUE,"c(1, 7, 2, 8, 3, 9, 4, 10, 5, 11, 6, 12)",0,"A","unstable",0.01,TRUE,0,1460673784
1,1,"2","2016-04-14 15:43:04.013",1460673784013177856,1.42,"2",2,1.42,-1,151.3152,0.66667,100,1.8,0.33333,200,90,1,TRUE,0,0,0.05,TRUE,"c(1, 7, 2, 8, 3, 9, 4, 10, 5, 11, 6, 12)",0,"A","unstable",0.01,TRUE,0,1460673784
1,1,"2","2016-04-14 15:43:04.013",1460673784013177856,1.41,"3",3,1.41,-1,169.0308,0.66667,100,1.8,0.33333,200,90,1,TRUE,0,0,0.05,TRUE,"c(1, 7, 2, 8, 3, 9, 4, 10, 5, 11, 6, 12)",0,"A","unstable",0.01,TRUE,0,1460673784
1,1,"2","2016-04-14 15:43:04.013",1460673784013177856,1.63,"4",4,1.63,-1,129.4704,0.66667,100,1.8,0.33333,200,90,1,TRUE,0,0,0.05,TRUE,"c(1, 7, 2, 8, 3, 9, 4, 10, 5, 11, 6, 12)",0,"A","unstable",0.01,TRUE,0,1460673784
1,1,"2","2016-04-14 15:43:04.013",1460673784013177856,1.15,"5",5,1.15,-1,151.848,0.66667,100,1.8,0.33333,200,90,1,TRUE,0,0,0.05,TRUE,"c(1, 7, 2, 8, 3, 9, 4, 10, 5, 11, 6, 12)",0,"A","unstable",0.01,TRUE,0,1460673784
1,1,"2","2016-04-14 15:43:04.013",1460673784013177856,1.44,"6",6,1.44,-1,134.2656,0.66667,100,1.8,0.33333,200,90,1,TRUE,0,0,0.05,TRUE,"c(1, 7, 2, 8, 3, 9, 4, 10, 5, 11, 6, 12)",0,"A","unstable",0.01,TRUE,0,1460673784
1,1,"2","2016-04-14 15:43:05.095",1460673785094625280,1.76,"1",1,1.76,-1,119.214,0.66667,100,1.8,0.33333,200,90,1,TRUE,0,0,0.05,TRUE,"c(1, 7, 2, 8, 3, 9, 4, 10, 5, 11, 6, 12)",0,"A","unstable",0.01,TRUE,0,1460673785
1,1,"2","2016-04-14 15:43:05.095",1460673785094625280,1.35,"2",2,1.35,-1,152.847,0.66667,100,1.8,0.33333,200,90,1,TRUE,0,0,0.05,TRUE,"c(1, 7, 2, 8, 3, 9, 4, 10, 5, 11, 6, 12)",0,"A","unstable",0.01,TRUE,0,1460673785
1,1,"2","2016-04-14 15:43:05.095",1460673785094625280,1.36,"3",3,1.36,-1,152.847,0.66667,100,1.8,0.33333,200,90,1,TRUE,0,0,0.05,TRUE,"c(1, 7, 2, 8, 3, 9, 4, 10, 5, 11, 6, 12)",0,"A","unstable",0.01,TRUE,0,1460673785
1,1,"2","2016-04-14 15:43:05.095",1460673785094625280,1.67,"4",4.5,1.67,-1,133.4664,0.66667,100,1.8,0.33333,200,90,1,TRUE,0,0,0.05,TRUE,"c(1, 7, 2, 8, 3, 9, 4, 10, 5, 11, 6, 12)",0,"A","unstable",0.01,TRUE,0,1460673785
1,1,"2","2016-04-14 15:43:05.095",1460673785094625280,1.26,"5",4.5,1.26,-1,166.5,0.66667,100,1.8,0.33333,200,90,1,TRUE,0,0,0.05,TRUE,"c(1, 7, 2, 8, 3, 9, 4, 10, 5, 11, 6, 12)",0,"A","unstable",0.01,TRUE,0,1460673785
1,1,"2","2016-04-14 15:43:05.095",1460673785094625280,1.4,"6",6,1.4,-1,130.536,0.66667,100,1.8,0.33333,200,90,1,TRUE,0,0,0.05,TRUE,"c(1, 7, 2, 8, 3, 9, 4, 10, 5, 11, 6, 12)",0,"A","unstable",0.01,TRUE,0,1460673785
1,1,"2","2016-04-14 15:43:06.086",1460673786086135808,1.69,"1",1.5,1.69,-1,123.8094,0.66667,100,1.8,0.33333,200,90,1,TRUE,0,0,0.05,TRUE,"c(1, 7, 2, 8, 3, 9, 4, 10, 5, 11, 6, 12)",0,"A","unstable",0.01,TRUE,0,1460673786
1,1,"2","2016-04-14 15:43:06.086",1460673786086135808,1.34,"2",1.5,1.34,-1,160.6392,0.66667,100,1.8,0.33333,200,90,1,TRUE,0,0,0.05,TRUE,"c(1, 7, 2, 8, 3, 9, 4, 10, 5, 11, 6, 12)",0,"A","unstable",0.01,TRUE,0,1460673786
1,1,"2","2016-04-14 15:43:06.086",1460673786086135808,1.4,"3",3,1.4,-1,130.536,0.66667,100,1.8,0.33333,200,90,1,TRUE,0,0,0.05,TRUE,"c(1, 7, 2, 8, 3, 9, 4, 10, 5, 11, 6, 12)",0,"A","unstable",0.01,TRUE,0,1460673786
1,1,"2","2016-04-14 15:43:06.086",1460673786086135808,1.69,"4",4,1.69,-1,123.8094,0.66667,100,1.8,0.33333,200,90,1,TRUE,0,0,0.05,TRUE,"c(1, 7, 2, 8, 3, 9, 4, 10, 5, 11, 6, 12)",0,"A","unstable",0.01,TRUE,0,1460673786
1,1,"2","2016-04-14 15:43:06.086",1460673786086135808,1.41,"5",5,1.41,-1,148.1184,0.66667,100,1.8,0.33333,200,90,1,TRUE,0,0,0.05,TRUE,"c(1, 7, 2, 8, 3, 9, 4, 10, 5, 11, 6, 12)",0,"A","unstable",0.01,TRUE,0,1460673786
1,1,"2","2016-04-14 15:43:06.086",1460673786086135808,1.32,"6",6,1.32,-1,175.824,0.66667,100,1.8,0.33333,200,90,1,TRUE,0,0,0.05,TRUE,"c(1, 7, 2, 8, 3, 9, 4, 10, 5, 11, 6, 12)",0,"A","unstable",0.01,TRUE,0,1460673786
1,1,"2","2016-04-14 15:43:07.082",1460673787082153216,1.69,"1",1.5,1.69,-1,123.8094,0.66667,100,1.8,0.33333,200,90,1,TRUE,0,0,0.05,TRUE,"c(1, 7, 2, 8, 3, 9, 4, 10, 5, 11, 6, 12)",0,"A","unstable",0.01,TRUE,0,1460673787
1,1,"2","2016-04-14 15:43:07.082",1460673787082153216,1.45,"2",1.5,1.45,-1,173.826,0.66667,100,1.8,0.33333,200,90,1,TRUE,0,0,0.05,TRUE,"c(1, 7, 2, 8, 3, 9, 4, 10, 5, 11, 6, 12)",0,"A","unstable",0.01,TRUE,0,1460673787
1,1,"2","2016-04-14 15:43:07.082",1460673787082153216,1.6,"3",3,1.6,-1,165.168,0.66667,100,1.8,0.33333,200,90,1,TRUE,0,0,0.05,TRUE,"c(1, 7, 2, 8, 3, 9, 4, 10, 5, 11, 6, 12)",0,"A","unstable",0.01,TRUE,0,1460673787
1,1,"2","2016-04-14 15:43:07.082",1460673787082153216,1.63,"4",4,1.63,-1,151.9812,0.66667,100,1.8,0.33333,200,90,1,TRUE,0,0,0.05,TRUE,"c(1, 7, 2, 8, 3, 9, 4, 10, 5, 11, 6, 12)",0,"A","unstable",0.01,TRUE,0,1460673787
1,1,"2","2016-04-14 15:43:07.082",1460673787082153216,1.72,"5",5,1.72,-1,123.8094,0.66667,100,1.8,0.33333,200,90,1,TRUE,0,0,0.05,TRUE,"c(1, 7, 2, 8, 3, 9, 4, 10, 5, 11, 6, 12)",0,"A","unstable",0.01,TRUE,0,1460673787
1,1,"2","2016-04-14 15:43:07.082",1460673787082153216,1.35,"6",6,1.35,-1,178.488,0.66667,100,1.8,0.33333,200,90,1,TRUE,0,0,0.05,TRUE,"c(1, 7, 2, 8, 3, 9, 4, 10, 5, 11, 6, 12)",0,"A","unstable",0.01,TRUE,0,1460673787
1,1,"2","2016-04-14 15:43:08.029",1460673788029794560,1.74,"1",1,1.74,-1,157.5756,0.66667,100,1.8,0.33333,200,90,1,TRUE,0,0,0.05,TRUE,"c(1, 7, 2, 8, 3, 9, 4, 10, 5, 11, 6, 12)",0,"A","unstable",0.01,TRUE,0,1460673788
1,1,"2","2016-04-14 15:43:08.029",1460673788029794560,1.55,"2",2,1.55,-1,185.814,0.66667,100,1.8,0.33333,200,90,1,TRUE,0,0,0.05,TRUE,"c(1, 7, 2, 8, 3, 9, 4, 10, 5, 11, 6, 12)",0,"A","unstable",0.01,TRUE,0,1460673788
1,1,"2","2016-04-14 15:43:08.029",1460673788029794560,1.71,"3",3,1.71,-1,136.6632,0.66667,100,1.8,0.33333,200,90,1,TRUE,0,0,0.05,TRUE,"c(1, 7, 2, 8, 3, 9, 4, 10, 5, 11, 6, 12)",0,"A","unstable",0.01,TRUE,0,1460673788
1,1,"2","2016-04-14 15:43:08.029",1460673788029794560,1.66,"4",4,1.66,-1,176.8896,0.66667,100,1.8,0.33333,200,90,1,TRUE,0,0,0.05,TRUE,"c(1, 7, 2, 8, 3, 9, 4, 10, 5, 11, 6, 12)",0,"A","unstable",0.01,TRUE,0,1460673788
1,1,"2","2016-04-14 15:43:08.029",1460673788029794560,1.79,"5",5,1.79,-1,119.214,0.66667,100,1.8,0.33333,200,90,1,TRUE,0,0,0.05,TRUE,"c(1, 7, 2, 8, 3, 9, 4, 10, 5, 11, 6, 12)",0,"A","unstable",0.01,TRUE,0,1460673788
1,1,"2","2016-04-14 15:43:08.029",1460673788029794560,1.43,"6",6,1.43,-1,189.144,0.66667,100,1.8,0.33333,200,90,1,TRUE,0,0,0.05,TRUE,"c(1, 7, 2, 8, 3, 9, 4, 10, 5, 11, 6, 12)",0,"A","unstable",0.01,TRUE,0,1460673788
1,1,"2","2016-04-14 15:43:09.082",1460673789082274304,1.79,"1",1.5,1.79,-1,131.1354,0.66667,100,1.8,0.33333,200,90,1,TRUE,0,0,0.05,TRUE,"c(1, 7, 2, 8, 3, 9, 4, 10, 5, 11, 6, 12)",0,"A","unstable",0.01,TRUE,0,1460673789
1,1,"2","2016-04-14 15:43:09.082",1460673789082274304,1.63,"2",1.5,1.63,-1,195.4044,0.66667,100,1.8,0.33333,200,90,1,TRUE,0,0,0.05,TRUE,"c(1, 7, 2, 8, 3, 9, 4, 10, 5, 11, 6, 12)",0,"A","unstable",0.01,TRUE,0,1460673789
1,1,"2","2016-04-14 15:43:09.082",1460673789082274304,1.72,"3",3,1.72,-1,160.3728,0.66667,100,1.8,0.33333,200,90,1,TRUE,0,0,0.05,TRUE,"c(1, 7, 2, 8, 3, 9, 4, 10, 5, 11, 6, 12)",0,"A","unstable",0.01,TRUE,0,1460673789
1,1,"2","2016-04-14 15:43:09.082",1460673789082274304,1.65,"4",4,1.65,-1,175.824,0.66667,100,1.8,0.33333,200,90,1,TRUE,0,0,0.05,TRUE,"c(1, 7, 2, 8, 3, 9, 4, 10, 5, 11, 6, 12)",0,"A","unstable",0.01,TRUE,0,1460673789
1,1,"2","2016-04-14 15:43:09.082",1460673789082274304,1.79,"5",5,1.79,-1,131.1354,0.66667,100,1.8,0.33333,200,90,1,TRUE,0,0,0.05,TRUE,"c(1, 7, 2, 8, 3, 9, 4, 10, 5, 11, 6, 12)",0,"A","unstable",0.01,TRUE,0,1460673789
1,1,"2","2016-04-14 15:43:09.082",1460673789082274304,1.49,"6",6,1.49,-1,197.136,0.66667,100,1.8,0.33333,200,90,1,TRUE,0,0,0.05,TRUE,"c(1, 7, 2, 8, 3, 9, 4, 10, 5, 11, 6, 12)",0,"A","unstable",0.01,TRUE,0,1460673789
1,1,"2","2016-04-14 15:43:10.046",1460673790045972480,1.79,"1",1.5,1.79,-1,131.1354,0.66667,100,1.8,0.33333,200,90,1,TRUE,0,0,0.05,TRUE,"c(1, 7, 2, 8, 3, 9, 4, 10, 5, 11, 6, 12)",0,"A","unstable",0.01,TRUE,0,1460673790
1,1,"2","2016-04-14 15:43:10.046",1460673790045972480,1.63,"2",1.5,1.63,-1,195.4044,0.66667,100,1.8,0.33333,200,90,1,TRUE,0,0,0.05,TRUE,"c(1, 7, 2, 8, 3, 9, 4, 10, 5, 11, 6, 12)",0,"A","unstable",0.01,TRUE,0,1460673790
1,1,"2","2016-04-14 15:43:10.046",1460673790045972480,1.72,"3",3,1.72,-1,160.3728,0.66667,100,1.8,0.33333,200,90,1,TRUE,0,0,0.05,TRUE,"c(1, 7, 2, 8, 3, 9, 4, 10, 5, 11, 6, 12)",0,"A","unstable",0.01,TRUE,0,1460673790
1,1,"2","2016-04-14 15:43:10.046",1460673790045972480,1.67,"4",4,1.67,-1,177.9552,0.66667,100,1.8,0.33333,200,90,1,TRUE,0,0,0.05,TRUE,"c(1, 7, 2, 8, 3, 9, 4, 10, 5, 11, 6, 12)",0,"A","unstable",0.01,TRUE,0,1460673790
1,1,"2","2016-04-14 15:43:10.046",1460673790045972480,1.79,"5",5,1.79,-1,131.1354,0.66667,100,1.8,0.33333,200,90,1,TRUE,0,0,0.05,TRUE,"c(1, 7, 2, 8, 3, 9, 4, 10, 5, 11, 6, 12)",0,"A","unstable",0.01,TRUE,0,1460673790
1,1,"2","2016-04-14 15:43:10.046",1460673790045972480,1.56,"6",6,1.56,-1,206.46,0.66667,100,1.8,0.33333,200,90,1,TRUE,0,0,0.05,TRUE,"c(1, 7, 2, 8, 3, 9, 4, 10, 5, 11, 6, 12)",0,"A","unstable",0.01,TRUE,0,1460673790
1,1,"2","2016-04-14 15:43:11.101",1460673791100549888,1.79,"1",1.5,1.79,-1,131.1354,0.66667,100,1.8,0.33333,200,90,1,TRUE,0,0,0.05,TRUE,"c(1, 7, 2, 8, 3, 9, 4, 10, 5, 11, 6, 12)",0,"A","unstable",0.01,TRUE,0,1460673791
1,1,"2","2016-04-14 15:43:11.101",1460673791100549888,1.63,"2",1.5,1.63,-1,195.4044,0.66667,100,1.8,0.33333,200,90,1,TRUE,0,0,0.05,TRUE,"c(1, 7, 2, 8, 3, 9, 4, 10, 5, 11, 6, 12)",0,"A","unstable",0.01,TRUE,0,1460673791
1,1,"2","2016-04-14 15:43:11.101",1460673791100549888,1.72,"3",3,1.72,-1,160.3728,0.66667,100,1.8,0.33333,200,90,1,TRUE,0,0,0.05,TRUE,"c(1, 7, 2, 8, 3, 9, 4, 10, 5, 11, 6, 12)",0,"A","unstable",0.01,TRUE,0,1460673791
1,1,"2","2016-04-14 15:43:11.101",1460673791100549888,1.68,"4",4,1.68,-1,179.0208,0.66667,100,1.8,0.33333,200,90,1,TRUE,0,0,0.05,TRUE,"c(1, 7, 2, 8, 3, 9, 4, 10, 5, 11, 6, 12)",0,"A","unstable",0.01,TRUE,0,1460673791
1,1,"2","2016-04-14 15:43:11.101",1460673791100549888,1.79,"5",5,1.79,-1,131.1354,0.66667,100,1.8,0.33333,200,90,1,TRUE,0,0,0.05,TRUE,"c(1, 7, 2, 8, 3, 9, 4, 10, 5, 11, 6, 12)",0,"A","unstable",0.01,TRUE,0,1460673791
1,1,"2","2016-04-14 15:43:11.101",1460673791100549888,1.58,"6",6,1.58,-1,211.788,0.66667,100,1.8,0.33333,200,90,1,TRUE,0,0,0.05,TRUE,"c(1, 7, 2, 8, 3, 9, 4, 10, 5, 11, 6, 12)",0,"A","unstable",0.01,TRUE,0,1460673791
1,1,"2","2016-04-14 15:43:12.061",1460673792061254144,1.79,"1",1,1.79,-1,119.214,0.66667,100,1.8,0.33333,200,90,1,TRUE,0,0,0.05,TRUE,"c(1, 7, 2, 8, 3, 9, 4, 10, 5, 11, 6, 12)",0,"A","unstable",0.01,TRUE,0,1460673792
1,1,"2","2016-04-14 15:43:12.061",1460673792061254144,1.55,"2",2,1.55,-1,185.814,0.66667,100,1.8,0.33333,200,90,1,TRUE,0,0,0.05,TRUE,"c(1, 7, 2, 8, 3, 9, 4, 10, 5, 11, 6, 12)",0,"A","unstable",0.01,TRUE,0,1460673792
1,1,"2","2016-04-14 15:43:12.061",1460673792061254144,1.72,"3",3,1.72,-1,137.4624,0.66667,100,1.8,0.33333,200,90,1,TRUE,0,0,0.05,TRUE,"c(1, 7, 2, 8, 3, 9, 4, 10, 5, 11, 6, 12)",0,"A","unstable",0.01,TRUE,0,1460673792
1,1,"2","2016-04-14 15:43:12.061",1460673792061254144,1.68,"4",4,1.68,-1,156.6432,0.66667,100,1.8,0.33333,200,90,1,TRUE,0,0,0.05,TRUE,"c(1, 7, 2, 8, 3, 9, 4, 10, 5, 11, 6, 12)",0,"A","unstable",0.01,TRUE,0,1460673792
1,1,"2","2016-04-14 15:43:12.061",1460673792061254144,1.45,"5",5,1.46,-1,201.132,0.66667,100,1.8,0.33333,200,90,1,TRUE,0,0,0.05,TRUE,"c(1, 7, 2, 8, 3, 9, 4, 10, 5, 11, 6, 12)",0,"A","unstable",0.01,TRUE,0,1460673792
1,1,"2","2016-04-14 15:43:12.061",1460673792061254144,1.58,"6",6,1.58,-1,168.3648,0.66667,100,1.8,0.33333,200,90,1,TRUE,0,0,0.05,TRUE,"c(1, 7, 2, 8, 3, 9, 4, 10, 5, 11, 6, 12)",0,"A","unstable",0.01,TRUE,0,1460673792
1,1,"2","2016-04-14 15:43:13.036",1460673793036454656,1.79,"1",1,1.79,-1,119.214,0.66667,100,1.8,0.33333,200,90,1,TRUE,0,0,0.05,TRUE,"c(1, 7, 2, 8, 3, 9, 4, 10, 5, 11, 6, 12)",0,"A","unstable",0.01,TRUE,0,1460673793
1,1,"2","2016-04-14 15:43:13.036",1460673793036454656,1.52,"2",2,1.52,-1,182.2176,0.66667,100,1.8,0.33333,200,90,1,TRUE,0,0,0.05,TRUE,"c(1, 7, 2, 8, 3, 9, 4, 10, 5, 11, 6, 12)",0,"A","unstable",0.01,TRUE,0,1460673793
1,1,"2","2016-04-14 15:43:13.036",1460673793036454656,1.72,"3",3,1.72,-1,137.4624,0.66667,100,1.8,0.33333,200,90,1,TRUE,0,0,0.05,TRUE,"c(1, 7, 2, 8, 3, 9, 4, 10, 5, 11, 6, 12)",0,"A","unstable",0.01,TRUE,0,1460673793
1,1,"2","2016-04-14 15:43:13.036",1460673793036454656,1.66,"4",4,1.66,-1,154.7784,0.66667,100,1.8,0.33333,200,90,1,TRUE,0,0,0.05,TRUE,"c(1, 7, 2, 8, 3, 9, 4, 10, 5, 11, 6, 12)",0,"A","unstable",0.01,TRUE,0,1460673793
1,1,"2","2016-04-14 15:43:13.036",1460673793036454656,1.42,"5",5,1.42,-1,189.144,0.66667,100,1.8,0.33333,200,90,1,TRUE,0,0,0.05,TRUE,"c(1, 7, 2, 8, 3, 9, 4, 10, 5, 11, 6, 12)",0,"A","unstable",0.01,TRUE,0,1460673793
1,1,"2","2016-04-14 15:43:13.036",1460673793036454656,1.53,"6",6,1.53,-1,163.0368,0.66667,100,1.8,0.33333,200,90,1,TRUE,0,0,0.05,TRUE,"c(1, 7, 2, 8, 3, 9, 4, 10, 5, 11, 6, 12)",0,"A","unstable",0.01,TRUE,0,1460673793
1,1,"2","2016-04-14 15:43:14.099",1460673794098769152,1.79,"1",1,1.79,-1,119.214,0.66667,100,1.8,0.33333,200,90,1,TRUE,0,0,0.05,TRUE,"c(1, 7, 2, 8, 3, 9, 4, 10, 5, 11, 6, 12)",0,"A","unstable",0.01,TRUE,0,1460673794
1,1,"2","2016-04-14 15:43:14.099",1460673794098769152,1.52,"2",2,1.52,-1,182.2176,0.66667,100,1.8,0.33333,200,90,1,TRUE,0,0,0.05,TRUE,"c(1, 7, 2, 8, 3, 9, 4, 10, 5, 11, 6, 12)",0,"A","unstable",0.01,TRUE,0,1460673794
1,1,"2","2016-04-14 15:43:14.099",1460673794098769152,1.72,"3",3,1.72,-1,137.4624,0.66667,100,1.8,0.33333,200,90,1,TRUE,0,0,0.05,TRUE,"c(1, 7, 2, 8, 3, 9, 4, 10, 5, 11, 6, 12)",0,"A","unstable",0.01,TRUE,0,1460673794
1,1,"2","2016-04-14 15:43:14.099",1460673794098769152,1.65,"4",4,1.65,-1,154.7784,0.66667,100,1.8,0.33333,200,90,1,TRUE,0,0,0.05,TRUE,"c(1, 7, 2, 8, 3, 9, 4, 10, 5, 11, 6, 12)",0,"A","unstable",0.01,TRUE,0,1460673794
1,1,"2","2016-04-14 15:43:14.099",1460673794098769152,1.34,"5",5,1.34,-1,178.488,0.66667,100,1.8,0.33333,200,90,1,TRUE,0,0,0.05,TRUE,"c(1, 7, 2, 8, 3, 9, 4, 10, 5, 11, 6, 12)",0,"A","unstable",0.01,TRUE,0,1460673794
1,1,"2","2016-04-14 15:43:14.099",1460673794098769152,1.53,"6",6,1.53,-1,163.0368,0.66667,100,1.8,0.33333,200,90,1,TRUE,0,0,0.05,TRUE,"c(1, 7, 2, 8, 3, 9, 4, 10, 5, 11, 6, 12)",0,"A","unstable",0.01,TRUE,0,1460673794
