"Period","Group","Sender","datetime","Time","ClientTime","Key","target","subjectid","rank","action","subperiodNumber","payoff","LOG_CONFIG.q1","LOG_CONFIG.mu","LOG_CONFIG.maxX","LOG_CONFIG.q2","LOG_CONFIG.ymax","LOG_CONFIG.period_length_s","LOG_CONFIG.period","LOG_CONFIG.payoffProjection","LOG_CONFIG.minX","LOG_CONFIG.ymin","LOG_CONFIG.step","LOG_CONFIG.hidePayoffs","LOG_CONFIG.groups","LOG_CONFIG.snap","LOG_CONFIG.payoffLabel","LOG_CONFIG.payoff","LOG_CONFIG.adjustAccuracy","LOG_CONFIG.actionHistory","LOG_CONFIG.num_sub_periods"
1,1,"2","2016-04-07 17:25:11.408",1460075111408487168,1460075111336,"state",0,"1",1.5,0,0,0,"2/3",100,10,"1/3",1000,10,1,TRUE,0,0,0.1,TRUE,"c(1, 5, 2, 6, 3, 7, 4, 8)",0,"A","stable",0.01,TRUE,5
1,1,"2","2016-04-07 17:25:11.408",1460075111408487168,1460075111336,"state",0,"2",2.5,0,0,0,"2/3",100,10,"1/3",1000,10,1,TRUE,0,0,0.1,TRUE,"c(1, 5, 2, 6, 3, 7, 4, 8)",0,"A","stable",0.01,TRUE,5
1,1,"2","2016-04-07 17:25:11.408",1460075111408487168,1460075111336,"state",0,"3",3.5,0,0,0,"2/3",100,10,"1/3",1000,10,1,TRUE,0,0,0.1,TRUE,"c(1, 5, 2, 6, 3, 7, 4, 8)",0,"A","stable",0.01,TRUE,5
1,1,"2","2016-04-07 17:25:11.408",1460075111408487168,1460075111336,"state",0,"4",3.5,0,0,0,"2/3",100,10,"1/3",1000,10,1,TRUE,0,0,0.1,TRUE,"c(1, 5, 2, 6, 3, 7, 4, 8)",0,"A","stable",0.01,TRUE,5
1,1,"2","2016-04-07 17:25:19.842",1460075119841797632,1460075119769,"state",4.74,"1",1,1.9,1,120,"2/3",100,10,"1/3",1000,10,1,TRUE,0,0,0.1,TRUE,"c(1, 5, 2, 6, 3, 7, 4, 8)",0,"A","stable",0.01,TRUE,5
1,1,"2","2016-04-07 17:25:19.842",1460075119841797632,1460075119769,"state",3.19,"2",2,1.1,1,106.666666666667,"2/3",100,10,"1/3",1000,10,1,TRUE,0,0,0.1,TRUE,"c(1, 5, 2, 6, 3, 7, 4, 8)",0,"A","stable",0.01,TRUE,5
1,1,"2","2016-04-07 17:25:19.842",1460075119841797632,1460075119769,"state",2.39,"3",3,0.8,1,77.7777777777778,"2/3",100,10,"1/3",1000,10,1,TRUE,0,0,0.1,TRUE,"c(1, 5, 2, 6, 3, 7, 4, 8)",0,"A","stable",0.01,TRUE,5
1,1,"2","2016-04-07 17:25:19.842",1460075119841797632,1460075119769,"state",4.59,"4",4,0.4,1,40,"2/3",100,10,"1/3",1000,10,1,TRUE,0,0,0.1,TRUE,"c(1, 5, 2, 6, 3, 7, 4, 8)",0,"A","stable",0.01,TRUE,5
1,1,"2","2016-04-07 17:25:28.295",1460075128295485184,1460075128220,"state",2.81,"1",1,3.3,2,226.666666666667,"2/3",100,10,"1/3",1000,10,1,TRUE,0,0,0.1,TRUE,"c(1, 5, 2, 6, 3, 7, 4, 8)",0,"A","stable",0.01,TRUE,5
1,1,"2","2016-04-07 17:25:28.295",1460075128295485184,1460075128220,"state",3.19,"2",2,3.1,2,284.444444444445,"2/3",100,10,"1/3",1000,10,1,TRUE,0,0,0.1,TRUE,"c(1, 5, 2, 6, 3, 7, 4, 8)",0,"A","stable",0.01,TRUE,5
1,1,"2","2016-04-07 17:25:28.295",1460075128295485184,1460075128220,"state",2.39,"3",3,2.39,2,265.555555555556,"2/3",100,10,"1/3",1000,10,1,TRUE,0,0,0.1,TRUE,"c(1, 5, 2, 6, 3, 7, 4, 8)",0,"A","stable",0.01,TRUE,5
1,1,"2","2016-04-07 17:25:28.295",1460075128295485184,1460075128220,"state",1.99,"4",4,1.92,2,242.666666666667,"2/3",100,10,"1/3",1000,10,1,TRUE,0,0,0.1,TRUE,"c(1, 5, 2, 6, 3, 7, 4, 8)",0,"A","stable",0.01,TRUE,5
1,1,"2","2016-04-07 17:25:36.847",1460075136846762752,1460075136774,"state",0.85,"1",1,2.61,3,301.111111111111,"2/3",100,10,"1/3",1000,10,1,TRUE,0,0,0.1,TRUE,"c(1, 5, 2, 6, 3, 7, 4, 8)",0,"A","stable",0.01,TRUE,5
1,1,"2","2016-04-07 17:25:36.847",1460075136846762752,1460075136774,"state",3.19,"2",2,3.19,3,283.555555555556,"2/3",100,10,"1/3",1000,10,1,TRUE,0,0,0.1,TRUE,"c(1, 5, 2, 6, 3, 7, 4, 8)",0,"A","stable",0.01,TRUE,5
1,1,"2","2016-04-07 17:25:36.847",1460075136846762752,1460075136774,"state",2.39,"3",3,2.39,3,318.666666666667,"2/3",100,10,"1/3",1000,10,1,TRUE,0,0,0.1,TRUE,"c(1, 5, 2, 6, 3, 7, 4, 8)",0,"A","stable",0.01,TRUE,5
1,1,"2","2016-04-07 17:25:36.847",1460075136846762752,1460075136774,"state",4.42,"4",4,3.29,3,212.666666666667,"2/3",100,10,"1/3",1000,10,1,TRUE,0,0,0.1,TRUE,"c(1, 5, 2, 6, 3, 7, 4, 8)",0,"A","stable",0.01,TRUE,5
1,1,"2","2016-04-07 17:25:45.409",1460075145409292288,1460075145330,"state",0.85,"1",1,0.85,4,113.333333333333,"2/3",100,10,"1/3",1000,10,1,TRUE,0,0,0.1,TRUE,"c(1, 5, 2, 6, 3, 7, 4, 8)",0,"A","stable",0.01,TRUE,5
1,1,"2","2016-04-07 17:25:45.409",1460075145409292288,1460075145330,"state",3.19,"2",2,3.19,4,283.555555555556,"2/3",100,10,"1/3",1000,10,1,TRUE,0,0,0.1,TRUE,"c(1, 5, 2, 6, 3, 7, 4, 8)",0,"A","stable",0.01,TRUE,5
1,1,"2","2016-04-07 17:25:45.409",1460075145409292288,1460075145330,"state",2.39,"3",3,2.39,4,265.555555555556,"2/3",100,10,"1/3",1000,10,1,TRUE,0,0,0.1,TRUE,"c(1, 5, 2, 6, 3, 7, 4, 8)",0,"A","stable",0.01,TRUE,5
1,1,"2","2016-04-07 17:25:45.409",1460075145409292288,1460075145330,"state",3.28,"4",4,3.82,4,261.333333333333,"2/3",100,10,"1/3",1000,10,1,TRUE,0,0,0.1,TRUE,"c(1, 5, 2, 6, 3, 7, 4, 8)",0,"A","stable",0.01,TRUE,5
1,1,"2","2016-04-07 17:25:53.838",1460075153838027264,1460075153763,"state",0.85,"1",1,0.85,5,113.333333333333,"2/3",100,10,"1/3",1000,10,1,TRUE,0,0,0.1,TRUE,"c(1, 5, 2, 6, 3, 7, 4, 8)",0,"A","stable",0.01,TRUE,5
1,1,"2","2016-04-07 17:25:53.838",1460075153838027264,1460075153763,"state",5.81,"2",2,4.89,5,332.666666666667,"2/3",100,10,"1/3",1000,10,1,TRUE,0,0,0.1,TRUE,"c(1, 5, 2, 6, 3, 7, 4, 8)",0,"A","stable",0.01,TRUE,5
1,1,"2","2016-04-07 17:25:53.838",1460075153838027264,1460075153763,"state",1.44,"3",3,1.44,5,160,"2/3",100,10,"1/3",1000,10,1,TRUE,0,0,0.1,TRUE,"c(1, 5, 2, 6, 3, 7, 4, 8)",0,"A","stable",0.01,TRUE,5
1,1,"2","2016-04-07 17:25:53.838",1460075153838027264,1460075153763,"state",3.28,"4",4,3.28,5,291.555555555556,"2/3",100,10,"1/3",1000,10,1,TRUE,0,0,0.1,TRUE,"c(1, 5, 2, 6, 3, 7, 4, 8)",0,"A","stable",0.01,TRUE,5
2,1,"2","2016-04-07 17:26:10.341",1460075170340979968,1460075170269,"state",0,"1",1.5,0,-1,0,"2/3",100,10,"1/3",1000,10,2,TRUE,0,0,0,TRUE,"c(1, 5, 2, 6, 3, 7, 4, 8)",0,"A","stable",0.01,TRUE,0
2,1,"2","2016-04-07 17:26:10.341",1460075170340979968,1460075170269,"state",0,"2",2.5,0,-1,0,"2/3",100,10,"1/3",1000,10,2,TRUE,0,0,0,TRUE,"c(1, 5, 2, 6, 3, 7, 4, 8)",0,"A","stable",0.01,TRUE,0
2,1,"2","2016-04-07 17:26:10.341",1460075170340979968,1460075170269,"state",0,"3",3.5,0,-1,0,"2/3",100,10,"1/3",1000,10,2,TRUE,0,0,0,TRUE,"c(1, 5, 2, 6, 3, 7, 4, 8)",0,"A","stable",0.01,TRUE,0
2,1,"2","2016-04-07 17:26:10.341",1460075170340979968,1460075170269,"state",0,"4",3.5,0,-1,0,"2/3",100,10,"1/3",1000,10,2,TRUE,0,0,0,TRUE,"c(1, 5, 2, 6, 3, 7, 4, 8)",0,"A","stable",0.01,TRUE,0
2,1,"2","2016-04-07 17:26:11.110",1460075171109869568,1460075171040,"state",0,"1",1.5,0,-1,0,"2/3",100,10,"1/3",1000,10,2,TRUE,0,0,0,TRUE,"c(1, 5, 2, 6, 3, 7, 4, 8)",0,"A","stable",0.01,TRUE,0
2,1,"2","2016-04-07 17:26:11.110",1460075171109869568,1460075171040,"state",0,"2",2.5,0,-1,0,"2/3",100,10,"1/3",1000,10,2,TRUE,0,0,0,TRUE,"c(1, 5, 2, 6, 3, 7, 4, 8)",0,"A","stable",0.01,TRUE,0
2,1,"2","2016-04-07 17:26:11.110",1460075171109869568,1460075171040,"state",0,"3",3.5,0,-1,0,"2/3",100,10,"1/3",1000,10,2,TRUE,0,0,0,TRUE,"c(1, 5, 2, 6, 3, 7, 4, 8)",0,"A","stable",0.01,TRUE,0
2,1,"2","2016-04-07 17:26:11.110",1460075171109869568,1460075171040,"state",0,"4",3.5,0,-1,0,"2/3",100,10,"1/3",1000,10,2,TRUE,0,0,0,TRUE,"c(1, 5, 2, 6, 3, 7, 4, 8)",0,"A","stable",0.01,TRUE,0
2,1,"2","2016-04-07 17:26:12.398",1460075172397549056,1460075172329,"state",2.79,"1",1,2.79,-1,186,"2/3",100,10,"1/3",1000,10,2,TRUE,0,0,0,TRUE,"c(1, 5, 2, 6, 3, 7, 4, 8)",0,"A","stable",0.01,TRUE,0
2,1,"2","2016-04-07 17:26:12.398",1460075172397549056,1460075172329,"state",0,"2",2.5,0,-1,0,"2/3",100,10,"1/3",1000,10,2,TRUE,0,0,0,TRUE,"c(1, 5, 2, 6, 3, 7, 4, 8)",0,"A","stable",0.01,TRUE,0
2,1,"2","2016-04-07 17:26:12.398",1460075172397549056,1460075172329,"state",0,"3",3.5,0,-1,0,"2/3",100,10,"1/3",1000,10,2,TRUE,0,0,0,TRUE,"c(1, 5, 2, 6, 3, 7, 4, 8)",0,"A","stable",0.01,TRUE,0
2,1,"2","2016-04-07 17:26:12.398",1460075172397549056,1460075172329,"state",0,"4",3.5,0,-1,0,"2/3",100,10,"1/3",1000,10,2,TRUE,0,0,0,TRUE,"c(1, 5, 2, 6, 3, 7, 4, 8)",0,"A","stable",0.01,TRUE,0
2,1,"2","2016-04-07 17:26:13.110",1460075173109559296,1460075173037,"state",2.79,"1",1,2.79,-1,186,"2/3",100,10,"1/3",1000,10,2,TRUE,0,0,0,TRUE,"c(1, 5, 2, 6, 3, 7, 4, 8)",0,"A","stable",0.01,TRUE,0
2,1,"2","2016-04-07 17:26:13.110",1460075173109559296,1460075173037,"state",0,"2",2.5,0,-1,0,"2/3",100,10,"1/3",1000,10,2,TRUE,0,0,0,TRUE,"c(1, 5, 2, 6, 3, 7, 4, 8)",0,"A","stable",0.01,TRUE,0
2,1,"2","2016-04-07 17:26:13.110",1460075173109559296,1460075173037,"state",0,"3",3.5,0,-1,0,"2/3",100,10,"1/3",1000,10,2,TRUE,0,0,0,TRUE,"c(1, 5, 2, 6, 3, 7, 4, 8)",0,"A","stable",0.01,TRUE,0
2,1,"2","2016-04-07 17:26:13.110",1460075173109559296,1460075173037,"state",0,"4",3.5,0,-1,0,"2/3",100,10,"1/3",1000,10,2,TRUE,0,0,0,TRUE,"c(1, 5, 2, 6, 3, 7, 4, 8)",0,"A","stable",0.01,TRUE,0
2,1,"2","2016-04-07 17:26:14.401",1460075174400605440,1460075174331,"state",2.79,"1",1,2.79,-1,248,"2/3",100,10,"1/3",1000,10,2,TRUE,0,0,0,TRUE,"c(1, 5, 2, 6, 3, 7, 4, 8)",0,"A","stable",0.01,TRUE,0
2,1,"2","2016-04-07 17:26:14.401",1460075174400605440,1460075174331,"state",4.74,"2",2,4.74,-1,316,"2/3",100,10,"1/3",1000,10,2,TRUE,0,0,0,TRUE,"c(1, 5, 2, 6, 3, 7, 4, 8)",0,"A","stable",0.01,TRUE,0
2,1,"2","2016-04-07 17:26:14.401",1460075174400605440,1460075174331,"state",1.97,"3",3.5,1.97,-1,0,"2/3",100,10,"1/3",1000,10,2,TRUE,0,0,0,TRUE,"c(1, 5, 2, 6, 3, 7, 4, 8)",0,"A","stable",0.01,TRUE,0
2,1,"2","2016-04-07 17:26:14.401",1460075174400605440,1460075174331,"state",0,"4",3.5,0,-1,0,"2/3",100,10,"1/3",1000,10,2,TRUE,0,0,0,TRUE,"c(1, 5, 2, 6, 3, 7, 4, 8)",0,"A","stable",0.01,TRUE,0
2,1,"2","2016-04-07 17:26:15.276",1460075175276396288,1460075175206,"state",2.79,"1",1,2.79,-1,248,"2/3",100,10,"1/3",1000,10,2,TRUE,0,0,0,TRUE,"c(1, 5, 2, 6, 3, 7, 4, 8)",0,"A","stable",0.01,TRUE,0
2,1,"2","2016-04-07 17:26:15.276",1460075175276396288,1460075175206,"state",4.74,"2",2,4.74,-1,316,"2/3",100,10,"1/3",1000,10,2,TRUE,0,0,0,TRUE,"c(1, 5, 2, 6, 3, 7, 4, 8)",0,"A","stable",0.01,TRUE,0
2,1,"2","2016-04-07 17:26:15.276",1460075175276396288,1460075175206,"state",1.97,"3",3,1.97,-1,218.888888888889,"2/3",100,10,"1/3",1000,10,2,TRUE,0,0,0,TRUE,"c(1, 5, 2, 6, 3, 7, 4, 8)",0,"A","stable",0.01,TRUE,0
2,1,"2","2016-04-07 17:26:15.276",1460075175276396288,1460075175206,"state",0,"4",4,0,-1,0,"2/3",100,10,"1/3",1000,10,2,TRUE,0,0,0,TRUE,"c(1, 5, 2, 6, 3, 7, 4, 8)",0,"A","stable",0.01,TRUE,0
2,1,"2","2016-04-07 17:26:16.105",1460075176104728320,1460075176033,"state",2.79,"1",1,2.79,-1,248,"2/3",100,10,"1/3",1000,10,2,TRUE,0,0,0,TRUE,"c(1, 5, 2, 6, 3, 7, 4, 8)",0,"A","stable",0.01,TRUE,0
2,1,"2","2016-04-07 17:26:16.105",1460075176104728320,1460075176033,"state",4.74,"2",2,4.74,-1,316,"2/3",100,10,"1/3",1000,10,2,TRUE,0,0,0,TRUE,"c(1, 5, 2, 6, 3, 7, 4, 8)",0,"A","stable",0.01,TRUE,0
2,1,"2","2016-04-07 17:26:16.105",1460075176104728320,1460075176033,"state",1.97,"3",3,1.97,-1,218.888888888889,"2/3",100,10,"1/3",1000,10,2,TRUE,0,0,0,TRUE,"c(1, 5, 2, 6, 3, 7, 4, 8)",0,"A","stable",0.01,TRUE,0
2,1,"2","2016-04-07 17:26:16.105",1460075176104728320,1460075176033,"state",0,"4",4,0,-1,0,"2/3",100,10,"1/3",1000,10,2,TRUE,0,0,0,TRUE,"c(1, 5, 2, 6, 3, 7, 4, 8)",0,"A","stable",0.01,TRUE,0
2,1,"2","2016-04-07 17:26:17.392",1460075177392446976,1460075177322,"state",2.79,"1",1,2.79,-1,310,"2/3",100,10,"1/3",1000,10,2,TRUE,0,0,0,TRUE,"c(1, 5, 2, 6, 3, 7, 4, 8)",0,"A","stable",0.01,TRUE,0
2,1,"2","2016-04-07 17:26:17.392",1460075177392446976,1460075177322,"state",4.74,"2",2,4.74,-1,316,"2/3",100,10,"1/3",1000,10,2,TRUE,0,0,0,TRUE,"c(1, 5, 2, 6, 3, 7, 4, 8)",0,"A","stable",0.01,TRUE,0
2,1,"2","2016-04-07 17:26:17.392",1460075177392446976,1460075177322,"state",1.97,"3",3,1.97,-1,262.666666666667,"2/3",100,10,"1/3",1000,10,2,TRUE,0,0,0,TRUE,"c(1, 5, 2, 6, 3, 7, 4, 8)",0,"A","stable",0.01,TRUE,0
2,1,"2","2016-04-07 17:26:17.392",1460075177392446976,1460075177322,"state",4.16,"4",4,4.16,-1,369.777777777778,"2/3",100,10,"1/3",1000,10,2,TRUE,0,0,0,TRUE,"c(1, 5, 2, 6, 3, 7, 4, 8)",0,"A","stable",0.01,TRUE,0
2,1,"2","2016-04-07 17:26:18.109",1460075178108964352,1460075178037,"state",2.79,"1",1,2.79,-1,310,"2/3",100,10,"1/3",1000,10,2,TRUE,0,0,0,TRUE,"c(1, 5, 2, 6, 3, 7, 4, 8)",0,"A","stable",0.01,TRUE,0
2,1,"2","2016-04-07 17:26:18.109",1460075178108964352,1460075178037,"state",4.74,"2",2,4.74,-1,316,"2/3",100,10,"1/3",1000,10,2,TRUE,0,0,0,TRUE,"c(1, 5, 2, 6, 3, 7, 4, 8)",0,"A","stable",0.01,TRUE,0
2,1,"2","2016-04-07 17:26:18.109",1460075178108964352,1460075178037,"state",1.97,"3",3,1.97,-1,262.666666666667,"2/3",100,10,"1/3",1000,10,2,TRUE,0,0,0,TRUE,"c(1, 5, 2, 6, 3, 7, 4, 8)",0,"A","stable",0.01,TRUE,0
2,1,"2","2016-04-07 17:26:18.109",1460075178108964352,1460075178037,"state",4.16,"4",4,4.16,-1,369.777777777778,"2/3",100,10,"1/3",1000,10,2,TRUE,0,0,0,TRUE,"c(1, 5, 2, 6, 3, 7, 4, 8)",0,"A","stable",0.01,TRUE,0
2,1,"2","2016-04-07 17:26:19.396",1.460075179396e+18,1460075179325,"state",2.79,"1",1,2.79,-1,310,"2/3",100,10,"1/3",1000,10,2,TRUE,0,0,0,TRUE,"c(1, 5, 2, 6, 3, 7, 4, 8)",0,"A","stable",0.01,TRUE,0
2,1,"2","2016-04-07 17:26:19.396",1.460075179396e+18,1460075179325,"state",3.61,"2",2,3.61,-1,320.888888888889,"2/3",100,10,"1/3",1000,10,2,TRUE,0,0,0,TRUE,"c(1, 5, 2, 6, 3, 7, 4, 8)",0,"A","stable",0.01,TRUE,0
2,1,"2","2016-04-07 17:26:19.396",1.460075179396e+18,1460075179325,"state",1.97,"3",3,1.97,-1,262.666666666667,"2/3",100,10,"1/3",1000,10,2,TRUE,0,0,0,TRUE,"c(1, 5, 2, 6, 3, 7, 4, 8)",0,"A","stable",0.01,TRUE,0
2,1,"2","2016-04-07 17:26:19.396",1.460075179396e+18,1460075179325,"state",4.16,"4",4,4.16,-1,277.333333333333,"2/3",100,10,"1/3",1000,10,2,TRUE,0,0,0,TRUE,"c(1, 5, 2, 6, 3, 7, 4, 8)",0,"A","stable",0.01,TRUE,0
2,1,"2","2016-04-07 17:26:20.104",1460075180104225792,1460075180034,"state",2.77,"1",1,2.77,-1,308.888888888889,"2/3",100,10,"1/3",1000,10,2,TRUE,0,0,0,TRUE,"c(1, 5, 2, 6, 3, 7, 4, 8)",0,"A","stable",0.01,TRUE,0
2,1,"2","2016-04-07 17:26:20.104",1460075180104225792,1460075180034,"state",3.61,"2",2,3.61,-1,320.888888888889,"2/3",100,10,"1/3",1000,10,2,TRUE,0,0,0,TRUE,"c(1, 5, 2, 6, 3, 7, 4, 8)",0,"A","stable",0.01,TRUE,0
2,1,"2","2016-04-07 17:26:20.104",1460075180104225792,1460075180034,"state",1.97,"3",3,1.97,-1,262.666666666667,"2/3",100,10,"1/3",1000,10,2,TRUE,0,0,0,TRUE,"c(1, 5, 2, 6, 3, 7, 4, 8)",0,"A","stable",0.01,TRUE,0
2,1,"2","2016-04-07 17:26:20.104",1460075180104225792,1460075180034,"state",4.16,"4",4,4.16,-1,277.333333333333,"2/3",100,10,"1/3",1000,10,2,TRUE,0,0,0,TRUE,"c(1, 5, 2, 6, 3, 7, 4, 8)",0,"A","stable",0.01,TRUE,0
2,1,"2","2016-04-07 17:26:21.394",1460075181394041600,1460075181323,"state",2.64,"1",1,2.64,-1,305.555555555556,"2/3",100,10,"1/3",1000,10,2,TRUE,0,0,0,TRUE,"c(1, 5, 2, 6, 3, 7, 4, 8)",0,"A","stable",0.01,TRUE,0
2,1,"2","2016-04-07 17:26:21.394",1460075181394041600,1460075181323,"state",3.61,"2",2,3.61,-1,320.888888888889,"2/3",100,10,"1/3",1000,10,2,TRUE,0,0,0,TRUE,"c(1, 5, 2, 6, 3, 7, 4, 8)",0,"A","stable",0.01,TRUE,0
2,1,"2","2016-04-07 17:26:21.394",1460075181394041600,1460075181323,"state",1.97,"3",3,1.97,-1,262.666666666667,"2/3",100,10,"1/3",1000,10,2,TRUE,0,0,0,TRUE,"c(1, 5, 2, 6, 3, 7, 4, 8)",0,"A","stable",0.01,TRUE,0
2,1,"2","2016-04-07 17:26:21.394",1460075181394041600,1460075181323,"state",4.16,"4",4,4.16,-1,277.333333333333,"2/3",100,10,"1/3",1000,10,2,TRUE,0,0,0,TRUE,"c(1, 5, 2, 6, 3, 7, 4, 8)",0,"A","stable",0.01,TRUE,0
2,1,"2","2016-04-07 17:26:22.105",1460075182104678656,1460075182034,"state",6.54,"1",1,6.54,-1,436,"2/3",100,10,"1/3",1000,10,2,TRUE,0,0,0,TRUE,"c(1, 5, 2, 6, 3, 7, 4, 8)",0,"A","stable",0.01,TRUE,0
2,1,"2","2016-04-07 17:26:22.105",1460075182104678656,1460075182034,"state",3.61,"2",2,3.61,-1,401.111111111111,"2/3",100,10,"1/3",1000,10,2,TRUE,0,0,0,TRUE,"c(1, 5, 2, 6, 3, 7, 4, 8)",0,"A","stable",0.01,TRUE,0
2,1,"2","2016-04-07 17:26:22.105",1460075182104678656,1460075182034,"state",1.97,"3",3,1.97,-1,262.666666666667,"2/3",100,10,"1/3",1000,10,2,TRUE,0,0,0,TRUE,"c(1, 5, 2, 6, 3, 7, 4, 8)",0,"A","stable",0.01,TRUE,0
2,1,"2","2016-04-07 17:26:22.105",1460075182104678656,1460075182034,"state",4.16,"4",4,4.16,-1,369.777777777778,"2/3",100,10,"1/3",1000,10,2,TRUE,0,0,0,TRUE,"c(1, 5, 2, 6, 3, 7, 4, 8)",0,"A","stable",0.01,TRUE,0
2,1,"2","2016-04-07 17:26:23.402",1460075183402303744,1460075183330,"state",6.54,"1",1,6.54,-1,436,"2/3",100,10,"1/3",1000,10,2,TRUE,0,0,0,TRUE,"c(1, 5, 2, 6, 3, 7, 4, 8)",0,"A","stable",0.01,TRUE,0
2,1,"2","2016-04-07 17:26:23.402",1460075183402303744,1460075183330,"state",3.61,"2",2,3.61,-1,320.888888888889,"2/3",100,10,"1/3",1000,10,2,TRUE,0,0,0,TRUE,"c(1, 5, 2, 6, 3, 7, 4, 8)",0,"A","stable",0.01,TRUE,0
2,1,"2","2016-04-07 17:26:23.402",1460075183402303744,1460075183330,"state",1.97,"3",3,1.97,-1,262.666666666667,"2/3",100,10,"1/3",1000,10,2,TRUE,0,0,0,TRUE,"c(1, 5, 2, 6, 3, 7, 4, 8)",0,"A","stable",0.01,TRUE,0
2,1,"2","2016-04-07 17:26:23.402",1460075183402303744,1460075183330,"state",2.39,"4",4,2.39,-1,265.555555555556,"2/3",100,10,"1/3",1000,10,2,TRUE,0,0,0,TRUE,"c(1, 5, 2, 6, 3, 7, 4, 8)",0,"A","stable",0.01,TRUE,0
2,1,"2","2016-04-07 17:26:24.108",1460075184107892224,1460075184036,"state",6.54,"1",1,6.54,-1,436,"2/3",100,10,"1/3",1000,10,2,TRUE,0,0,0,TRUE,"c(1, 5, 2, 6, 3, 7, 4, 8)",0,"A","stable",0.01,TRUE,0
2,1,"2","2016-04-07 17:26:24.108",1460075184107892224,1460075184036,"state",3.61,"2",2,3.61,-1,320.888888888889,"2/3",100,10,"1/3",1000,10,2,TRUE,0,0,0,TRUE,"c(1, 5, 2, 6, 3, 7, 4, 8)",0,"A","stable",0.01,TRUE,0
2,1,"2","2016-04-07 17:26:24.108",1460075184107892224,1460075184036,"state",1.98,"3",3,1.98,-1,264,"2/3",100,10,"1/3",1000,10,2,TRUE,0,0,0,TRUE,"c(1, 5, 2, 6, 3, 7, 4, 8)",0,"A","stable",0.01,TRUE,0
2,1,"2","2016-04-07 17:26:24.108",1460075184107892224,1460075184036,"state",2.39,"4",4,2.39,-1,265.555555555556,"2/3",100,10,"1/3",1000,10,2,TRUE,0,0,0,TRUE,"c(1, 5, 2, 6, 3, 7, 4, 8)",0,"A","stable",0.01,TRUE,0
2,1,"2","2016-04-07 17:26:25.408",1460075185408187392,1460075185335,"state",6.54,"1",1,6.54,-1,436,"2/3",100,10,"1/3",1000,10,2,TRUE,0,0,0,TRUE,"c(1, 5, 2, 6, 3, 7, 4, 8)",0,"A","stable",0.01,TRUE,0
2,1,"2","2016-04-07 17:26:25.408",1460075185408187392,1460075185335,"state",3.61,"2",2,3.61,-1,320.888888888889,"2/3",100,10,"1/3",1000,10,2,TRUE,0,0,0,TRUE,"c(1, 5, 2, 6, 3, 7, 4, 8)",0,"A","stable",0.01,TRUE,0
2,1,"2","2016-04-07 17:26:25.408",1460075185408187392,1460075185335,"state",2.12,"3",3,2.12,-1,282.666666666667,"2/3",100,10,"1/3",1000,10,2,TRUE,0,0,0,TRUE,"c(1, 5, 2, 6, 3, 7, 4, 8)",0,"A","stable",0.01,TRUE,0
2,1,"2","2016-04-07 17:26:25.408",1460075185408187392,1460075185335,"state",2.39,"4",4,2.39,-1,265.555555555556,"2/3",100,10,"1/3",1000,10,2,TRUE,0,0,0,TRUE,"c(1, 5, 2, 6, 3, 7, 4, 8)",0,"A","stable",0.01,TRUE,0
2,1,"2","2016-04-07 17:26:26.267",1460075186267166720,1460075186195,"state",6.54,"1",1,6.54,-1,436,"2/3",100,10,"1/3",1000,10,2,TRUE,0,0,0,TRUE,"c(1, 5, 2, 6, 3, 7, 4, 8)",0,"A","stable",0.01,TRUE,0
2,1,"2","2016-04-07 17:26:26.267",1460075186267166720,1460075186195,"state",3.61,"2",2,3.61,-1,401.111111111111,"2/3",100,10,"1/3",1000,10,2,TRUE,0,0,0,TRUE,"c(1, 5, 2, 6, 3, 7, 4, 8)",0,"A","stable",0.01,TRUE,0
2,1,"2","2016-04-07 17:26:26.267",1460075186267166720,1460075186195,"state",5.48,"3",3,5.48,-1,487.111111111111,"2/3",100,10,"1/3",1000,10,2,TRUE,0,0,0,TRUE,"c(1, 5, 2, 6, 3, 7, 4, 8)",0,"A","stable",0.01,TRUE,0
2,1,"2","2016-04-07 17:26:26.267",1460075186267166720,1460075186195,"state",2.39,"4",4,2.39,-1,318.666666666667,"2/3",100,10,"1/3",1000,10,2,TRUE,0,0,0,TRUE,"c(1, 5, 2, 6, 3, 7, 4, 8)",0,"A","stable",0.01,TRUE,0
2,1,"2","2016-04-07 17:26:27.109",1460075187108508672,1460075187038,"state",6.54,"1",1,6.54,-1,436,"2/3",100,10,"1/3",1000,10,2,TRUE,0,0,0,TRUE,"c(1, 5, 2, 6, 3, 7, 4, 8)",0,"A","stable",0.01,TRUE,0
2,1,"2","2016-04-07 17:26:27.109",1460075187108508672,1460075187038,"state",3.61,"2",2,3.61,-1,401.111111111111,"2/3",100,10,"1/3",1000,10,2,TRUE,0,0,0,TRUE,"c(1, 5, 2, 6, 3, 7, 4, 8)",0,"A","stable",0.01,TRUE,0
2,1,"2","2016-04-07 17:26:27.109",1460075187108508672,1460075187038,"state",5.48,"3",3,5.48,-1,487.111111111111,"2/3",100,10,"1/3",1000,10,2,TRUE,0,0,0,TRUE,"c(1, 5, 2, 6, 3, 7, 4, 8)",0,"A","stable",0.01,TRUE,0
2,1,"2","2016-04-07 17:26:27.109",1460075187108508672,1460075187038,"state",2.39,"4",4,2.39,-1,318.666666666667,"2/3",100,10,"1/3",1000,10,2,TRUE,0,0,0,TRUE,"c(1, 5, 2, 6, 3, 7, 4, 8)",0,"A","stable",0.01,TRUE,0
2,1,"2","2016-04-07 17:26:28.405",1460075188405493248,1460075188333,"state",3.98,"1",1,3.98,-1,353.777777777778,"2/3",100,10,"1/3",1000,10,2,TRUE,0,0,0,TRUE,"c(1, 5, 2, 6, 3, 7, 4, 8)",0,"A","stable",0.01,TRUE,0
2,1,"2","2016-04-07 17:26:28.405",1460075188405493248,1460075188333,"state",3.61,"2",2,3.61,-1,401.111111111111,"2/3",100,10,"1/3",1000,10,2,TRUE,0,0,0,TRUE,"c(1, 5, 2, 6, 3, 7, 4, 8)",0,"A","stable",0.01,TRUE,0
2,1,"2","2016-04-07 17:26:28.405",1460075188405493248,1460075188333,"state",5.48,"3",3,5.48,-1,365.333333333333,"2/3",100,10,"1/3",1000,10,2,TRUE,0,0,0,TRUE,"c(1, 5, 2, 6, 3, 7, 4, 8)",0,"A","stable",0.01,TRUE,0
2,1,"2","2016-04-07 17:26:28.405",1460075188405493248,1460075188333,"state",2.39,"4",4,2.39,-1,318.666666666667,"2/3",100,10,"1/3",1000,10,2,TRUE,0,0,0,TRUE,"c(1, 5, 2, 6, 3, 7, 4, 8)",0,"A","stable",0.01,TRUE,0
2,1,"2","2016-04-07 17:26:29.103",1460075189103077632,1460075189033,"state",8.56,"1",1,8.56,-1,570.666666666667,"2/3",100,10,"1/3",1000,10,2,TRUE,0,0,0,TRUE,"c(1, 5, 2, 6, 3, 7, 4, 8)",0,"A","stable",0.01,TRUE,0
2,1,"2","2016-04-07 17:26:29.103",1460075189103077632,1460075189033,"state",3.61,"2",2,3.61,-1,401.111111111111,"2/3",100,10,"1/3",1000,10,2,TRUE,0,0,0,TRUE,"c(1, 5, 2, 6, 3, 7, 4, 8)",0,"A","stable",0.01,TRUE,0
2,1,"2","2016-04-07 17:26:29.103",1460075189103077632,1460075189033,"state",5.48,"3",3,5.48,-1,487.111111111111,"2/3",100,10,"1/3",1000,10,2,TRUE,0,0,0,TRUE,"c(1, 5, 2, 6, 3, 7, 4, 8)",0,"A","stable",0.01,TRUE,0
2,1,"2","2016-04-07 17:26:29.103",1460075189103077632,1460075189033,"state",2.39,"4",4,2.39,-1,318.666666666667,"2/3",100,10,"1/3",1000,10,2,TRUE,0,0,0,TRUE,"c(1, 5, 2, 6, 3, 7, 4, 8)",0,"A","stable",0.01,TRUE,0
2,1,"2","2016-04-07 17:26:30.397",1460075190396622848,1460075190325,"state",8.56,"1",1,8.56,-1,570.666666666667,"2/3",100,10,"1/3",1000,10,2,TRUE,0,0,0,TRUE,"c(1, 5, 2, 6, 3, 7, 4, 8)",0,"A","stable",0.01,TRUE,0
2,1,"2","2016-04-07 17:26:30.397",1460075190396622848,1460075190325,"state",3.61,"2",2,3.61,-1,401.111111111111,"2/3",100,10,"1/3",1000,10,2,TRUE,0,0,0,TRUE,"c(1, 5, 2, 6, 3, 7, 4, 8)",0,"A","stable",0.01,TRUE,0
2,1,"2","2016-04-07 17:26:30.397",1460075190396622848,1460075190325,"state",5.48,"3",3,5.48,-1,487.111111111111,"2/3",100,10,"1/3",1000,10,2,TRUE,0,0,0,TRUE,"c(1, 5, 2, 6, 3, 7, 4, 8)",0,"A","stable",0.01,TRUE,0
2,1,"2","2016-04-07 17:26:30.397",1460075190396622848,1460075190325,"state",2.39,"4",4,2.39,-1,318.666666666667,"2/3",100,10,"1/3",1000,10,2,TRUE,0,0,0,TRUE,"c(1, 5, 2, 6, 3, 7, 4, 8)",0,"A","stable",0.01,TRUE,0
2,1,"2","2016-04-07 17:26:31.105",1460075191105473024,1460075191035,"state",8.56,"1",1,8.56,-1,570.666666666667,"2/3",100,10,"1/3",1000,10,2,TRUE,0,0,0,TRUE,"c(1, 5, 2, 6, 3, 7, 4, 8)",0,"A","stable",0.01,TRUE,0
2,1,"2","2016-04-07 17:26:31.105",1460075191105473024,1460075191035,"state",7.53,"2",2,7.53,-1,669.333333333333,"2/3",100,10,"1/3",1000,10,2,TRUE,0,0,0,TRUE,"c(1, 5, 2, 6, 3, 7, 4, 8)",0,"A","stable",0.01,TRUE,0
2,1,"2","2016-04-07 17:26:31.105",1460075191105473024,1460075191035,"state",5.48,"3",3,5.48,-1,608.888888888889,"2/3",100,10,"1/3",1000,10,2,TRUE,0,0,0,TRUE,"c(1, 5, 2, 6, 3, 7, 4, 8)",0,"A","stable",0.01,TRUE,0
2,1,"2","2016-04-07 17:26:31.105",1460075191105473024,1460075191035,"state",2.39,"4",4,2.39,-1,318.666666666667,"2/3",100,10,"1/3",1000,10,2,TRUE,0,0,0,TRUE,"c(1, 5, 2, 6, 3, 7, 4, 8)",0,"A","stable",0.01,TRUE,0
2,1,"2","2016-04-07 17:26:32.396",1460075192396165120,1460075192323,"state",8.56,"1",1,8.56,-1,570.666666666667,"2/3",100,10,"1/3",1000,10,2,TRUE,0,0,0,TRUE,"c(1, 5, 2, 6, 3, 7, 4, 8)",0,"A","stable",0.01,TRUE,0
2,1,"2","2016-04-07 17:26:32.396",1460075192396165120,1460075192323,"state",7.53,"2",2,7.53,-1,669.333333333333,"2/3",100,10,"1/3",1000,10,2,TRUE,0,0,0,TRUE,"c(1, 5, 2, 6, 3, 7, 4, 8)",0,"A","stable",0.01,TRUE,0
2,1,"2","2016-04-07 17:26:32.396",1460075192396165120,1460075192323,"state",5.48,"3",3,5.48,-1,608.888888888889,"2/3",100,10,"1/3",1000,10,2,TRUE,0,0,0,TRUE,"c(1, 5, 2, 6, 3, 7, 4, 8)",0,"A","stable",0.01,TRUE,0
2,1,"2","2016-04-07 17:26:32.396",1460075192396165120,1460075192323,"state",2.39,"4",4,2.39,-1,318.666666666667,"2/3",100,10,"1/3",1000,10,2,TRUE,0,0,0,TRUE,"c(1, 5, 2, 6, 3, 7, 4, 8)",0,"A","stable",0.01,TRUE,0
2,1,"2","2016-04-07 17:26:33.104",1460075193104492032,1460075193034,"state",8.56,"1",1,8.56,-1,570.666666666667,"2/3",100,10,"1/3",1000,10,2,TRUE,0,0,0,TRUE,"c(1, 5, 2, 6, 3, 7, 4, 8)",0,"A","stable",0.01,TRUE,0
2,1,"2","2016-04-07 17:26:33.104",1460075193104492032,1460075193034,"state",7.53,"2",2,7.53,-1,669.333333333333,"2/3",100,10,"1/3",1000,10,2,TRUE,0,0,0,TRUE,"c(1, 5, 2, 6, 3, 7, 4, 8)",0,"A","stable",0.01,TRUE,0
2,1,"2","2016-04-07 17:26:33.104",1460075193104492032,1460075193034,"state",5.48,"3",3,5.48,-1,608.888888888889,"2/3",100,10,"1/3",1000,10,2,TRUE,0,0,0,TRUE,"c(1, 5, 2, 6, 3, 7, 4, 8)",0,"A","stable",0.01,TRUE,0
2,1,"2","2016-04-07 17:26:33.104",1460075193104492032,1460075193034,"state",2.39,"4",4,2.39,-1,318.666666666667,"2/3",100,10,"1/3",1000,10,2,TRUE,0,0,0,TRUE,"c(1, 5, 2, 6, 3, 7, 4, 8)",0,"A","stable",0.01,TRUE,0
2,1,"2","2016-04-07 17:26:34.401",1460075194401070080,1460075194331,"state",8.56,"1",1,8.56,-1,570.666666666667,"2/3",100,10,"1/3",1000,10,2,TRUE,0,0,0,TRUE,"c(1, 5, 2, 6, 3, 7, 4, 8)",0,"A","stable",0.01,TRUE,0
2,1,"2","2016-04-07 17:26:34.401",1460075194401070080,1460075194331,"state",7.53,"2",2,7.53,-1,669.333333333333,"2/3",100,10,"1/3",1000,10,2,TRUE,0,0,0,TRUE,"c(1, 5, 2, 6, 3, 7, 4, 8)",0,"A","stable",0.01,TRUE,0
2,1,"2","2016-04-07 17:26:34.401",1460075194401070080,1460075194331,"state",5.48,"3",3,5.48,-1,730.666666666667,"2/3",100,10,"1/3",1000,10,2,TRUE,0,0,0,TRUE,"c(1, 5, 2, 6, 3, 7, 4, 8)",0,"A","stable",0.01,TRUE,0
2,1,"2","2016-04-07 17:26:34.401",1460075194401070080,1460075194331,"state",6.93,"4",4,6.93,-1,770,"2/3",100,10,"1/3",1000,10,2,TRUE,0,0,0,TRUE,"c(1, 5, 2, 6, 3, 7, 4, 8)",0,"A","stable",0.01,TRUE,0
2,1,"2","2016-04-07 17:26:35.116",1460075195115762944,1460075195042,"state",8.56,"1",1,8.56,-1,570.666666666667,"2/3",100,10,"1/3",1000,10,2,TRUE,0,0,0,TRUE,"c(1, 5, 2, 6, 3, 7, 4, 8)",0,"A","stable",0.01,TRUE,0
2,1,"2","2016-04-07 17:26:35.116",1460075195115762944,1460075195042,"state",7.53,"2",2,7.53,-1,669.333333333333,"2/3",100,10,"1/3",1000,10,2,TRUE,0,0,0,TRUE,"c(1, 5, 2, 6, 3, 7, 4, 8)",0,"A","stable",0.01,TRUE,0
2,1,"2","2016-04-07 17:26:35.116",1460075195115762944,1460075195042,"state",5.48,"3",3,5.48,-1,730.666666666667,"2/3",100,10,"1/3",1000,10,2,TRUE,0,0,0,TRUE,"c(1, 5, 2, 6, 3, 7, 4, 8)",0,"A","stable",0.01,TRUE,0
2,1,"2","2016-04-07 17:26:35.116",1460075195115762944,1460075195042,"state",6.93,"4",4,6.93,-1,770,"2/3",100,10,"1/3",1000,10,2,TRUE,0,0,0,TRUE,"c(1, 5, 2, 6, 3, 7, 4, 8)",0,"A","stable",0.01,TRUE,0
2,1,"2","2016-04-07 17:26:36.410",1460075196410247424,1460075196337,"state",8.56,"1",1,8.56,-1,570.666666666667,"2/3",100,10,"1/3",1000,10,2,TRUE,0,0,0,TRUE,"c(1, 5, 2, 6, 3, 7, 4, 8)",0,"A","stable",0.01,TRUE,0
2,1,"2","2016-04-07 17:26:36.410",1460075196410247424,1460075196337,"state",4.14,"2",2,4.14,-1,552,"2/3",100,10,"1/3",1000,10,2,TRUE,0,0,0,TRUE,"c(1, 5, 2, 6, 3, 7, 4, 8)",0,"A","stable",0.01,TRUE,0
2,1,"2","2016-04-07 17:26:36.410",1460075196410247424,1460075196337,"state",5.48,"3",3,5.48,-1,608.888888888889,"2/3",100,10,"1/3",1000,10,2,TRUE,0,0,0,TRUE,"c(1, 5, 2, 6, 3, 7, 4, 8)",0,"A","stable",0.01,TRUE,0
2,1,"2","2016-04-07 17:26:36.410",1460075196410247424,1460075196337,"state",6.93,"4",4,6.93,-1,616,"2/3",100,10,"1/3",1000,10,2,TRUE,0,0,0,TRUE,"c(1, 5, 2, 6, 3, 7, 4, 8)",0,"A","stable",0.01,TRUE,0
2,1,"2","2016-04-07 17:26:37.339",1460075197338983680,1460075197269,"state",8.56,"1",1,8.56,-1,570.666666666667,"2/3",100,10,"1/3",1000,10,2,TRUE,0,0,0,TRUE,"c(1, 5, 2, 6, 3, 7, 4, 8)",0,"A","stable",0.01,TRUE,0
2,1,"2","2016-04-07 17:26:37.339",1460075197338983680,1460075197269,"state",4.14,"2",2,4.14,-1,552,"2/3",100,10,"1/3",1000,10,2,TRUE,0,0,0,TRUE,"c(1, 5, 2, 6, 3, 7, 4, 8)",0,"A","stable",0.01,TRUE,0
2,1,"2","2016-04-07 17:26:37.339",1460075197338983680,1460075197269,"state",5.48,"3",3,5.48,-1,608.888888888889,"2/3",100,10,"1/3",1000,10,2,TRUE,0,0,0,TRUE,"c(1, 5, 2, 6, 3, 7, 4, 8)",0,"A","stable",0.01,TRUE,0
2,1,"2","2016-04-07 17:26:37.339",1460075197338983680,1460075197269,"state",6.93,"4",4,6.93,-1,616,"2/3",100,10,"1/3",1000,10,2,TRUE,0,0,0,TRUE,"c(1, 5, 2, 6, 3, 7, 4, 8)",0,"A","stable",0.01,TRUE,0
2,1,"2","2016-04-07 17:26:38.125",1460075198125109504,1460075198054,"state",8.56,"1",1,8.56,-1,570.666666666667,"2/3",100,10,"1/3",1000,10,2,TRUE,0,0,0,TRUE,"c(1, 5, 2, 6, 3, 7, 4, 8)",0,"A","stable",0.01,TRUE,0
2,1,"2","2016-04-07 17:26:38.125",1460075198125109504,1460075198054,"state",4.14,"2",2,4.14,-1,552,"2/3",100,10,"1/3",1000,10,2,TRUE,0,0,0,TRUE,"c(1, 5, 2, 6, 3, 7, 4, 8)",0,"A","stable",0.01,TRUE,0
2,1,"2","2016-04-07 17:26:38.125",1460075198125109504,1460075198054,"state",5.48,"3",3,5.48,-1,608.888888888889,"2/3",100,10,"1/3",1000,10,2,TRUE,0,0,0,TRUE,"c(1, 5, 2, 6, 3, 7, 4, 8)",0,"A","stable",0.01,TRUE,0
2,1,"2","2016-04-07 17:26:38.125",1460075198125109504,1460075198054,"state",6.93,"4",4,6.93,-1,616,"2/3",100,10,"1/3",1000,10,2,TRUE,0,0,0,TRUE,"c(1, 5, 2, 6, 3, 7, 4, 8)",0,"A","stable",0.01,TRUE,0
2,1,"2","2016-04-07 17:26:39.024",1460075199024035584,1460075198953,"state",6.13,"1",1,6.13,-1,570.666666666667,"2/3",100,10,"1/3",1000,10,2,TRUE,0,0,0,TRUE,"c(1, 5, 2, 6, 3, 7, 4, 8)",0,"A","stable",0.01,TRUE,0
2,1,"2","2016-04-07 17:26:39.024",1460075199024035584,1460075198953,"state",4.14,"2",2,4.14,-1,552,"2/3",100,10,"1/3",1000,10,2,TRUE,0,0,0,TRUE,"c(1, 5, 2, 6, 3, 7, 4, 8)",0,"A","stable",0.01,TRUE,0
2,1,"2","2016-04-07 17:26:39.024",1460075199024035584,1460075198953,"state",5.48,"3",3,5.48,-1,608.888888888889,"2/3",100,10,"1/3",1000,10,2,TRUE,0,0,0,TRUE,"c(1, 5, 2, 6, 3, 7, 4, 8)",0,"A","stable",0.01,TRUE,0
2,1,"2","2016-04-07 17:26:39.024",1460075199024035584,1460075198953,"state",6.93,"4",4,6.93,-1,616,"2/3",100,10,"1/3",1000,10,2,TRUE,0,0,0,TRUE,"c(1, 5, 2, 6, 3, 7, 4, 8)",0,"A","stable",0.01,TRUE,0
2,1,"2","2016-04-07 17:26:40.073",1460075200072862208,1460075200000,"state",6.13,"1",1,6.13,-1,544.888888888889,"2/3",100,10,"1/3",1000,10,2,TRUE,0,0,0,TRUE,"c(1, 5, 2, 6, 3, 7, 4, 8)",0,"A","stable",0.01,TRUE,0
2,1,"2","2016-04-07 17:26:40.073",1460075200072862208,1460075200000,"state",4.14,"2",2,4.14,-1,552,"2/3",100,10,"1/3",1000,10,2,TRUE,0,0,0,TRUE,"c(1, 5, 2, 6, 3, 7, 4, 8)",0,"A","stable",0.01,TRUE,0
2,1,"2","2016-04-07 17:26:40.073",1460075200072862208,1460075200000,"state",5.48,"3",3,5.48,-1,608.888888888889,"2/3",100,10,"1/3",1000,10,2,TRUE,0,0,0,TRUE,"c(1, 5, 2, 6, 3, 7, 4, 8)",0,"A","stable",0.01,TRUE,0
2,1,"2","2016-04-07 17:26:40.073",1460075200072862208,1460075200000,"state",6.93,"4",4,6.93,-1,462,"2/3",100,10,"1/3",1000,10,2,TRUE,0,0,0,TRUE,"c(1, 5, 2, 6, 3, 7, 4, 8)",0,"A","stable",0.01,TRUE,0
2,1,"2","2016-04-07 17:26:41.495",1460075201495248384,1460075201422,"state",6.13,"1",1,6.13,-1,408.666666666667,"2/3",100,10,"1/3",1000,10,2,TRUE,0,0,0,TRUE,"c(1, 5, 2, 6, 3, 7, 4, 8)",0,"A","stable",0.01,TRUE,0
2,1,"2","2016-04-07 17:26:41.495",1460075201495248384,1460075201422,"state",4.14,"2",2,4.14,-1,552,"2/3",100,10,"1/3",1000,10,2,TRUE,0,0,0,TRUE,"c(1, 5, 2, 6, 3, 7, 4, 8)",0,"A","stable",0.01,TRUE,0
2,1,"2","2016-04-07 17:26:41.495",1460075201495248384,1460075201422,"state",5.48,"3",3,5.48,-1,487.111111111111,"2/3",100,10,"1/3",1000,10,2,TRUE,0,0,0,TRUE,"c(1, 5, 2, 6, 3, 7, 4, 8)",0,"A","stable",0.01,TRUE,0
2,1,"2","2016-04-07 17:26:41.495",1460075201495248384,1460075201422,"state",5.37,"4",4,5.37,-1,596.666666666667,"2/3",100,10,"1/3",1000,10,2,TRUE,0,0,0,TRUE,"c(1, 5, 2, 6, 3, 7, 4, 8)",0,"A","stable",0.01,TRUE,0
2,1,"2","2016-04-07 17:26:42.014",1460075202014022400,1460075201941,"state",6.13,"1",1,6.13,-1,408.666666666667,"2/3",100,10,"1/3",1000,10,2,TRUE,0,0,0,TRUE,"c(1, 5, 2, 6, 3, 7, 4, 8)",0,"A","stable",0.01,TRUE,0
2,1,"2","2016-04-07 17:26:42.014",1460075202014022400,1460075201941,"state",4.14,"2",2,4.14,-1,552,"2/3",100,10,"1/3",1000,10,2,TRUE,0,0,0,TRUE,"c(1, 5, 2, 6, 3, 7, 4, 8)",0,"A","stable",0.01,TRUE,0
2,1,"2","2016-04-07 17:26:42.014",1460075202014022400,1460075201941,"state",5.48,"3",3,5.48,-1,487.111111111111,"2/3",100,10,"1/3",1000,10,2,TRUE,0,0,0,TRUE,"c(1, 5, 2, 6, 3, 7, 4, 8)",0,"A","stable",0.01,TRUE,0
2,1,"2","2016-04-07 17:26:42.014",1460075202014022400,1460075201941,"state",5.37,"4",4,5.37,-1,596.666666666667,"2/3",100,10,"1/3",1000,10,2,TRUE,0,0,0,TRUE,"c(1, 5, 2, 6, 3, 7, 4, 8)",0,"A","stable",0.01,TRUE,0
2,1,"2","2016-04-07 17:26:43.067",1460075203067008768,1460075202994,"state",6.13,"1",1,6.13,-1,408.666666666667,"2/3",100,10,"1/3",1000,10,2,TRUE,0,0,0,TRUE,"c(1, 5, 2, 6, 3, 7, 4, 8)",0,"A","stable",0.01,TRUE,0
2,1,"2","2016-04-07 17:26:43.067",1460075203067008768,1460075202994,"state",4.14,"2",2,4.14,-1,552,"2/3",100,10,"1/3",1000,10,2,TRUE,0,0,0,TRUE,"c(1, 5, 2, 6, 3, 7, 4, 8)",0,"A","stable",0.01,TRUE,0
2,1,"2","2016-04-07 17:26:43.067",1460075203067008768,1460075202994,"state",5.48,"3",3,5.48,-1,487.111111111111,"2/3",100,10,"1/3",1000,10,2,TRUE,0,0,0,TRUE,"c(1, 5, 2, 6, 3, 7, 4, 8)",0,"A","stable",0.01,TRUE,0
2,1,"2","2016-04-07 17:26:43.067",1460075203067008768,1460075202994,"state",5.37,"4",4,5.37,-1,596.666666666667,"2/3",100,10,"1/3",1000,10,2,TRUE,0,0,0,TRUE,"c(1, 5, 2, 6, 3, 7, 4, 8)",0,"A","stable",0.01,TRUE,0
2,1,"2","2016-04-07 17:26:44.116",1460075204115865088,1460075204042,"state",6.13,"1",1,6.13,-1,544.888888888889,"2/3",100,10,"1/3",1000,10,2,TRUE,0,0,0,TRUE,"c(1, 5, 2, 6, 3, 7, 4, 8)",0,"A","stable",0.01,TRUE,0
2,1,"2","2016-04-07 17:26:44.116",1460075204115865088,1460075204042,"state",4.14,"2",2,4.14,-1,552,"2/3",100,10,"1/3",1000,10,2,TRUE,0,0,0,TRUE,"c(1, 5, 2, 6, 3, 7, 4, 8)",0,"A","stable",0.01,TRUE,0
2,1,"2","2016-04-07 17:26:44.116",1460075204115865088,1460075204042,"state",9.2,"3",3,9.2,-1,554,"2/3",100,10,"1/3",1000,10,2,TRUE,0,0,0,TRUE,"c(1, 5, 2, 6, 3, 7, 4, 8)",0,"A","stable",0.01,TRUE,0
2,1,"2","2016-04-07 17:26:44.116",1460075204115865088,1460075204042,"state",5.37,"4",4,5.37,-1,596.666666666667,"2/3",100,10,"1/3",1000,10,2,TRUE,0,0,0,TRUE,"c(1, 5, 2, 6, 3, 7, 4, 8)",0,"A","stable",0.01,TRUE,0
2,1,"2","2016-04-07 17:26:45.157",1460075205157096960,1460075205083,"state",6.13,"1",1,6.13,-1,544.888888888889,"2/3",100,10,"1/3",1000,10,2,TRUE,0,0,0,TRUE,"c(1, 5, 2, 6, 3, 7, 4, 8)",0,"A","stable",0.01,TRUE,0
2,1,"2","2016-04-07 17:26:45.157",1460075205157096960,1460075205083,"state",4.14,"2",2,4.14,-1,552,"2/3",100,10,"1/3",1000,10,2,TRUE,0,0,0,TRUE,"c(1, 5, 2, 6, 3, 7, 4, 8)",0,"A","stable",0.01,TRUE,0
2,1,"2","2016-04-07 17:26:45.157",1460075205157096960,1460075205083,"state",9.2,"3",3,9.2,-1,613.333333333333,"2/3",100,10,"1/3",1000,10,2,TRUE,0,0,0,TRUE,"c(1, 5, 2, 6, 3, 7, 4, 8)",0,"A","stable",0.01,TRUE,0
2,1,"2","2016-04-07 17:26:45.157",1460075205157096960,1460075205083,"state",5.37,"4",4,5.37,-1,596.666666666667,"2/3",100,10,"1/3",1000,10,2,TRUE,0,0,0,TRUE,"c(1, 5, 2, 6, 3, 7, 4, 8)",0,"A","stable",0.01,TRUE,0
2,1,"2","2016-04-07 17:26:46.196",1460075206196067584,1460075206125,"state",7.95,"1",1,7.95,-1,706.666666666667,"2/3",100,10,"1/3",1000,10,2,TRUE,0,0,0,TRUE,"c(1, 5, 2, 6, 3, 7, 4, 8)",0,"A","stable",0.01,TRUE,0
2,1,"2","2016-04-07 17:26:46.196",1460075206196067584,1460075206125,"state",4.14,"2",2,4.14,-1,552,"2/3",100,10,"1/3",1000,10,2,TRUE,0,0,0,TRUE,"c(1, 5, 2, 6, 3, 7, 4, 8)",0,"A","stable",0.01,TRUE,0
2,1,"2","2016-04-07 17:26:46.196",1460075206196067584,1460075206125,"state",9.2,"3",3,9.2,-1,613.333333333333,"2/3",100,10,"1/3",1000,10,2,TRUE,0,0,0,TRUE,"c(1, 5, 2, 6, 3, 7, 4, 8)",0,"A","stable",0.01,TRUE,0
2,1,"2","2016-04-07 17:26:46.196",1460075206196067584,1460075206125,"state",5.37,"4",4,5.37,-1,596.666666666667,"2/3",100,10,"1/3",1000,10,2,TRUE,0,0,0,TRUE,"c(1, 5, 2, 6, 3, 7, 4, 8)",0,"A","stable",0.01,TRUE,0
2,1,"2","2016-04-07 17:26:47.105",1460075207104792832,1460075207034,"state",7.95,"1",1,7.95,-1,706.666666666667,"2/3",100,10,"1/3",1000,10,2,TRUE,0,0,0,TRUE,"c(1, 5, 2, 6, 3, 7, 4, 8)",0,"A","stable",0.01,TRUE,0
2,1,"2","2016-04-07 17:26:47.105",1460075207104792832,1460075207034,"state",4.14,"2",2,4.14,-1,552,"2/3",100,10,"1/3",1000,10,2,TRUE,0,0,0,TRUE,"c(1, 5, 2, 6, 3, 7, 4, 8)",0,"A","stable",0.01,TRUE,0
2,1,"2","2016-04-07 17:26:47.105",1460075207104792832,1460075207034,"state",9.2,"3",3,9.2,-1,613.333333333333,"2/3",100,10,"1/3",1000,10,2,TRUE,0,0,0,TRUE,"c(1, 5, 2, 6, 3, 7, 4, 8)",0,"A","stable",0.01,TRUE,0
2,1,"2","2016-04-07 17:26:47.105",1460075207104792832,1460075207034,"state",5.37,"4",4,5.37,-1,596.666666666667,"2/3",100,10,"1/3",1000,10,2,TRUE,0,0,0,TRUE,"c(1, 5, 2, 6, 3, 7, 4, 8)",0,"A","stable",0.01,TRUE,0
2,1,"2","2016-04-07 17:26:48.052",1460075208051890432,1460075207981,"state",7.95,"1",1,7.95,-1,706.666666666667,"2/3",100,10,"1/3",1000,10,2,TRUE,0,0,0,TRUE,"c(1, 5, 2, 6, 3, 7, 4, 8)",0,"A","stable",0.01,TRUE,0
2,1,"2","2016-04-07 17:26:48.052",1460075208051890432,1460075207981,"state",6.98,"2",2,6.98,-1,775.555555555556,"2/3",100,10,"1/3",1000,10,2,TRUE,0,0,0,TRUE,"c(1, 5, 2, 6, 3, 7, 4, 8)",0,"A","stable",0.01,TRUE,0
2,1,"2","2016-04-07 17:26:48.052",1460075208051890432,1460075207981,"state",9.2,"3",3,9.2,-1,613.333333333333,"2/3",100,10,"1/3",1000,10,2,TRUE,0,0,0,TRUE,"c(1, 5, 2, 6, 3, 7, 4, 8)",0,"A","stable",0.01,TRUE,0
2,1,"2","2016-04-07 17:26:48.052",1460075208051890432,1460075207981,"state",5.37,"4",4,5.37,-1,716,"2/3",100,10,"1/3",1000,10,2,TRUE,0,0,0,TRUE,"c(1, 5, 2, 6, 3, 7, 4, 8)",0,"A","stable",0.01,TRUE,0
2,1,"2","2016-04-07 17:26:49.351",1460075209350789120,1460075209279,"state",7.95,"1",1,7.95,-1,706.666666666667,"2/3",100,10,"1/3",1000,10,2,TRUE,0,0,0,TRUE,"c(1, 5, 2, 6, 3, 7, 4, 8)",0,"A","stable",0.01,TRUE,0
2,1,"2","2016-04-07 17:26:49.351",1460075209350789120,1460075209279,"state",6.98,"2",2,6.98,-1,775.555555555556,"2/3",100,10,"1/3",1000,10,2,TRUE,0,0,0,TRUE,"c(1, 5, 2, 6, 3, 7, 4, 8)",0,"A","stable",0.01,TRUE,0
2,1,"2","2016-04-07 17:26:49.351",1460075209350789120,1460075209279,"state",9.2,"3",3,9.2,-1,613.333333333333,"2/3",100,10,"1/3",1000,10,2,TRUE,0,0,0,TRUE,"c(1, 5, 2, 6, 3, 7, 4, 8)",0,"A","stable",0.01,TRUE,0
2,1,"2","2016-04-07 17:26:49.351",1460075209350789120,1460075209279,"state",5.37,"4",4,5.37,-1,716,"2/3",100,10,"1/3",1000,10,2,TRUE,0,0,0,TRUE,"c(1, 5, 2, 6, 3, 7, 4, 8)",0,"A","stable",0.01,TRUE,0
2,1,"2","2016-04-07 17:26:50.109",1460075210108910592,1460075210038,"state",7.95,"1",1,7.95,-1,706.666666666667,"2/3",100,10,"1/3",1000,10,2,TRUE,0,0,0,TRUE,"c(1, 5, 2, 6, 3, 7, 4, 8)",0,"A","stable",0.01,TRUE,0
2,1,"2","2016-04-07 17:26:50.109",1460075210108910592,1460075210038,"state",6.98,"2",2,6.98,-1,775.555555555556,"2/3",100,10,"1/3",1000,10,2,TRUE,0,0,0,TRUE,"c(1, 5, 2, 6, 3, 7, 4, 8)",0,"A","stable",0.01,TRUE,0
2,1,"2","2016-04-07 17:26:50.109",1460075210108910592,1460075210038,"state",9.2,"3",3,9.2,-1,613.333333333333,"2/3",100,10,"1/3",1000,10,2,TRUE,0,0,0,TRUE,"c(1, 5, 2, 6, 3, 7, 4, 8)",0,"A","stable",0.01,TRUE,0
2,1,"2","2016-04-07 17:26:50.109",1460075210108910592,1460075210038,"state",6.58,"4",4,6.58,-1,716,"2/3",100,10,"1/3",1000,10,2,TRUE,0,0,0,TRUE,"c(1, 5, 2, 6, 3, 7, 4, 8)",0,"A","stable",0.01,TRUE,0
2,1,"2","2016-04-07 17:26:51.416",1460075211415921408,1460075211339,"state",7.95,"1",1,7.95,-1,706.666666666667,"2/3",100,10,"1/3",1000,10,2,TRUE,0,0,0,TRUE,"c(1, 5, 2, 6, 3, 7, 4, 8)",0,"A","stable",0.01,TRUE,0
2,1,"2","2016-04-07 17:26:51.416",1460075211415921408,1460075211339,"state",6.98,"2",2,6.98,-1,775.555555555556,"2/3",100,10,"1/3",1000,10,2,TRUE,0,0,0,TRUE,"c(1, 5, 2, 6, 3, 7, 4, 8)",0,"A","stable",0.01,TRUE,0
2,1,"2","2016-04-07 17:26:51.416",1460075211415921408,1460075211339,"state",9.2,"3",3,9.2,-1,613.333333333333,"2/3",100,10,"1/3",1000,10,2,TRUE,0,0,0,TRUE,"c(1, 5, 2, 6, 3, 7, 4, 8)",0,"A","stable",0.01,TRUE,0
2,1,"2","2016-04-07 17:26:51.416",1460075211415921408,1460075211339,"state",6.58,"4",4,6.58,-1,877.333333333333,"2/3",100,10,"1/3",1000,10,2,TRUE,0,0,0,TRUE,"c(1, 5, 2, 6, 3, 7, 4, 8)",0,"A","stable",0.01,TRUE,0
2,1,"2","2016-04-07 17:26:52.274",1460075212274140416,1460075212202,"state",7.95,"1",1,7.95,-1,883.333333333333,"2/3",100,10,"1/3",1000,10,2,TRUE,0,0,0,TRUE,"c(1, 5, 2, 6, 3, 7, 4, 8)",0,"A","stable",0.01,TRUE,0
2,1,"2","2016-04-07 17:26:52.274",1460075212274140416,1460075212202,"state",9.09,"2",2,9.09,-1,808,"2/3",100,10,"1/3",1000,10,2,TRUE,0,0,0,TRUE,"c(1, 5, 2, 6, 3, 7, 4, 8)",0,"A","stable",0.01,TRUE,0
2,1,"2","2016-04-07 17:26:52.274",1460075212274140416,1460075212202,"state",9.2,"3",3,9.2,-1,613.333333333333,"2/3",100,10,"1/3",1000,10,2,TRUE,0,0,0,TRUE,"c(1, 5, 2, 6, 3, 7, 4, 8)",0,"A","stable",0.01,TRUE,0
2,1,"2","2016-04-07 17:26:52.274",1460075212274140416,1460075212202,"state",6.58,"4",4,6.58,-1,877.333333333333,"2/3",100,10,"1/3",1000,10,2,TRUE,0,0,0,TRUE,"c(1, 5, 2, 6, 3, 7, 4, 8)",0,"A","stable",0.01,TRUE,0
2,1,"2","2016-04-07 17:26:53.107",1460075213106825216,1460075213034,"state",7.95,"1",1,7.95,-1,883.333333333333,"2/3",100,10,"1/3",1000,10,2,TRUE,0,0,0,TRUE,"c(1, 5, 2, 6, 3, 7, 4, 8)",0,"A","stable",0.01,TRUE,0
2,1,"2","2016-04-07 17:26:53.107",1460075213106825216,1460075213034,"state",9.09,"2",2,9.09,-1,808,"2/3",100,10,"1/3",1000,10,2,TRUE,0,0,0,TRUE,"c(1, 5, 2, 6, 3, 7, 4, 8)",0,"A","stable",0.01,TRUE,0
2,1,"2","2016-04-07 17:26:53.107",1460075213106825216,1460075213034,"state",9.2,"3",3,9.2,-1,613.333333333333,"2/3",100,10,"1/3",1000,10,2,TRUE,0,0,0,TRUE,"c(1, 5, 2, 6, 3, 7, 4, 8)",0,"A","stable",0.01,TRUE,0
2,1,"2","2016-04-07 17:26:53.107",1460075213106825216,1460075213034,"state",6.58,"4",4,6.58,-1,877.333333333333,"2/3",100,10,"1/3",1000,10,2,TRUE,0,0,0,TRUE,"c(1, 5, 2, 6, 3, 7, 4, 8)",0,"A","stable",0.01,TRUE,0
3,1,"2","2016-04-07 17:27:09.028",1.460075229028e+18,1460075228955,"state",0,"1",1.5,0,0,0,"2/3",100,10,"1/3",1000,10,3,TRUE,0,0,0.3,FALSE,"c(1, 5, 2, 6, 3, 7, 4, 8)",0,"A","stable",0.01,TRUE,2
3,1,"2","2016-04-07 17:27:09.028",1.460075229028e+18,1460075228955,"state",0,"2",2.5,0,0,0,"2/3",100,10,"1/3",1000,10,3,TRUE,0,0,0.3,FALSE,"c(1, 5, 2, 6, 3, 7, 4, 8)",0,"A","stable",0.01,TRUE,2
3,1,"2","2016-04-07 17:27:09.028",1.460075229028e+18,1460075228955,"state",0,"3",3.5,0,0,0,"2/3",100,10,"1/3",1000,10,3,TRUE,0,0,0.3,FALSE,"c(1, 5, 2, 6, 3, 7, 4, 8)",0,"A","stable",0.01,TRUE,2
3,1,"2","2016-04-07 17:27:09.028",1.460075229028e+18,1460075228955,"state",0,"4",3.5,0,0,0,"2/3",100,10,"1/3",1000,10,3,TRUE,0,0,0.3,FALSE,"c(1, 5, 2, 6, 3, 7, 4, 8)",0,"A","stable",0.01,TRUE,2
3,1,"2","2016-04-07 17:27:29.409",1460075249408967424,1460075249336,"state",6.89,"1",1,4.89,1,510,"2/3",100,10,"1/3",1000,10,3,TRUE,0,0,0.3,FALSE,"c(1, 5, 2, 6, 3, 7, 4, 8)",0,"A","stable",0.01,TRUE,2
3,1,"2","2016-04-07 17:27:29.409",1460075249408967424,1460075249336,"state",9.18,"2",2,7.8,1,540,"2/3",100,10,"1/3",1000,10,3,TRUE,0,0,0.3,FALSE,"c(1, 5, 2, 6, 3, 7, 4, 8)",0,"A","stable",0.01,TRUE,2
3,1,"2","2016-04-07 17:27:29.409",1460075249408967424,1460075249336,"state",2.96,"3",3,2.96,1,394.666666666667,"2/3",100,10,"1/3",1000,10,3,TRUE,0,0,0.3,FALSE,"c(1, 5, 2, 6, 3, 7, 4, 8)",0,"A","stable",0.01,TRUE,2
3,1,"2","2016-04-07 17:27:29.409",1460075249408967424,1460075249336,"state",5.29,"4",4,5.29,1,470.222222222222,"2/3",100,10,"1/3",1000,10,3,TRUE,0,0,0.3,FALSE,"c(1, 5, 2, 6, 3, 7, 4, 8)",0,"A","stable",0.01,TRUE,2
3,1,"2","2016-04-07 17:27:49.974",1460075269973640448,1460075269895,"state",4.46,"1",1,4.46,2,396.444444444444,"2/3",100,10,"1/3",1000,10,3,TRUE,0,0,0.3,FALSE,"c(1, 5, 2, 6, 3, 7, 4, 8)",0,"A","stable",0.01,TRUE,2
3,1,"2","2016-04-07 17:27:49.974",1460075269973640448,1460075269895,"state",3.91,"2",2,3.91,2,434.444444444444,"2/3",100,10,"1/3",1000,10,3,TRUE,0,0,0.3,FALSE,"c(1, 5, 2, 6, 3, 7, 4, 8)",0,"A","stable",0.01,TRUE,2
3,1,"2","2016-04-07 17:27:49.974",1460075269973640448,1460075269895,"state",6.98,"3",3,2.44,2,285.333333333333,"2/3",100,10,"1/3",1000,10,3,TRUE,0,0,0.3,FALSE,"c(1, 5, 2, 6, 3, 7, 4, 8)",0,"A","stable",0.01,TRUE,2
3,1,"2","2016-04-07 17:27:49.974",1460075269973640448,1460075269895,"state",4.48,"4",4,4.96,2,350.666666666667,"2/3",100,10,"1/3",1000,10,3,TRUE,0,0,0.3,FALSE,"c(1, 5, 2, 6, 3, 7, 4, 8)",0,"A","stable",0.01,TRUE,2
