"Period","Group","Sender","datetime","Time","ClientTime","Key","target","subjectid","rank","action","subperiodNumber","payoff","LOG_CONFIG.q1","LOG_CONFIG.mu","LOG_CONFIG.maxX","LOG_CONFIG.q2","LOG_CONFIG.ymax","LOG_CONFIG.period_length_s","LOG_CONFIG.period","LOG_CONFIG.payoffProjection","LOG_CONFIG.minX","LOG_CONFIG.ymin","LOG_CONFIG.step","LOG_CONFIG.hidePayoffs","LOG_CONFIG.groups","LOG_CONFIG.snap","LOG_CONFIG.payoffLabel","LOG_CONFIG.payoff","LOG_CONFIG.adjustAccuracy","LOG_CONFIG.actionHistory","LOG_CONFIG.num_sub_periods"
1,1,"2","2016-04-07 15:02:03.750",1460066523749951744,1460066518784,"state",0,"1",1.5,0,0,0,"2/3",100,10,"1/3",1000,10,1,TRUE,0,0,0.1,TRUE,"c(1, 5, 2, 6, 3, 7, 4, 8)",0,"A","stable",0.01,TRUE,5
1,1,"2","2016-04-07 15:02:03.750",1460066523749951744,1460066518784,"state",0,"2",2.5,0,0,0,"2/3",100,10,"1/3",1000,10,1,TRUE,0,0,0.1,TRUE,"c(1, 5, 2, 6, 3, 7, 4, 8)",0,"A","stable",0.01,TRUE,5
1,1,"2","2016-04-07 15:02:03.750",1460066523749951744,1460066518784,"state",0,"3",3.5,0,0,0,"2/3",100,10,"1/3",1000,10,1,TRUE,0,0,0.1,TRUE,"c(1, 5, 2, 6, 3, 7, 4, 8)",0,"A","stable",0.01,TRUE,5
1,1,"2","2016-04-07 15:02:03.750",1460066523749951744,1460066518784,"state",0,"4",3.5,0,0,0,"2/3",100,10,"1/3",1000,10,1,TRUE,0,0,0.1,TRUE,"c(1, 5, 2, 6, 3, 7, 4, 8)",0,"A","stable",0.01,TRUE,5
1,1,"2","2016-04-07 15:02:12.127",1460066532126714624,1460066527160,"state",0,"1",1,0,1,0,"2/3",100,10,"1/3",1000,10,1,TRUE,0,0,0.1,TRUE,"c(1, 5, 2, 6, 3, 7, 4, 8)",0,"A","stable",0.01,TRUE,5
1,1,"2","2016-04-07 15:02:12.127",1460066532126714624,1460066527160,"state",0,"2",2.5,0,1,0,"2/3",100,10,"1/3",1000,10,1,TRUE,0,0,0.1,TRUE,"c(1, 5, 2, 6, 3, 7, 4, 8)",0,"A","stable",0.01,TRUE,5
1,1,"2","2016-04-07 15:02:12.127",1460066532126714624,1460066527160,"state",0,"3",3.5,0,1,0,"2/3",100,10,"1/3",1000,10,1,TRUE,0,0,0.1,TRUE,"c(1, 5, 2, 6, 3, 7, 4, 8)",0,"A","stable",0.01,TRUE,5
1,1,"2","2016-04-07 15:02:12.127",1460066532126714624,1460066527160,"state",4.9,"4",3.5,1.7,1,106.666666666667,"2/3",100,10,"1/3",1000,10,1,TRUE,0,0,0.1,TRUE,"c(1, 5, 2, 6, 3, 7, 4, 8)",0,"A","stable",0.01,TRUE,5
1,1,"2","2016-04-07 15:02:20.564",1460066540563643648,1460066535598,"state",0,"1",1,0,2,0,"2/3",100,10,"1/3",1000,10,1,TRUE,0,0,0.1,TRUE,"c(1, 5, 2, 6, 3, 7, 4, 8)",0,"A","stable",0.01,TRUE,5
1,1,"2","2016-04-07 15:02:20.564",1460066540563643648,1460066535598,"state",0,"2",2.5,0,2,0,"2/3",100,10,"1/3",1000,10,1,TRUE,0,0,0.1,TRUE,"c(1, 5, 2, 6, 3, 7, 4, 8)",0,"A","stable",0.01,TRUE,5
1,1,"2","2016-04-07 15:02:20.564",1460066540563643648,1460066535598,"state",0,"3",3.5,0,2,0,"2/3",100,10,"1/3",1000,10,1,TRUE,0,0,0.1,TRUE,"c(1, 5, 2, 6, 3, 7, 4, 8)",0,"A","stable",0.01,TRUE,5
1,1,"2","2016-04-07 15:02:20.564",1460066540563643648,1460066535598,"state",4.9,"4",3.5,3.7,2,240,"2/3",100,10,"1/3",1000,10,1,TRUE,0,0,0.1,TRUE,"c(1, 5, 2, 6, 3, 7, 4, 8)",0,"A","stable",0.01,TRUE,5
1,1,"2","2016-04-07 15:02:28.995",1460066548995267328,1460066544026,"state",0,"1",1,0,3,0,"2/3",100,10,"1/3",1000,10,1,TRUE,0,0,0.1,TRUE,"c(1, 5, 2, 6, 3, 7, 4, 8)",0,"A","stable",0.01,TRUE,5
1,1,"2","2016-04-07 15:02:28.995",1460066548995267328,1460066544026,"state",0,"2",2.5,0,3,0,"2/3",100,10,"1/3",1000,10,1,TRUE,0,0,0.1,TRUE,"c(1, 5, 2, 6, 3, 7, 4, 8)",0,"A","stable",0.01,TRUE,5
1,1,"2","2016-04-07 15:02:28.995",1460066548995267328,1460066544026,"state",0,"3",3.5,0,3,0,"2/3",100,10,"1/3",1000,10,1,TRUE,0,0,0.1,TRUE,"c(1, 5, 2, 6, 3, 7, 4, 8)",0,"A","stable",0.01,TRUE,5
1,1,"2","2016-04-07 15:02:28.995",1460066548995267328,1460066544026,"state",4.9,"4",3.5,4.9,3,326.666666666667,"2/3",100,10,"1/3",1000,10,1,TRUE,0,0,0.1,TRUE,"c(1, 5, 2, 6, 3, 7, 4, 8)",0,"A","stable",0.01,TRUE,5
1,1,"2","2016-04-07 15:02:37.561",1460066557560656896,1460066552593,"state",0,"1",1,0,4,0,"2/3",100,10,"1/3",1000,10,1,TRUE,0,0,0.1,TRUE,"c(1, 5, 2, 6, 3, 7, 4, 8)",0,"A","stable",0.01,TRUE,5
1,1,"2","2016-04-07 15:02:37.561",1460066557560656896,1460066552593,"state",0,"2",2.5,0,4,0,"2/3",100,10,"1/3",1000,10,1,TRUE,0,0,0.1,TRUE,"c(1, 5, 2, 6, 3, 7, 4, 8)",0,"A","stable",0.01,TRUE,5
1,1,"2","2016-04-07 15:02:37.561",1460066557560656896,1460066552593,"state",0,"3",3.5,0,4,0,"2/3",100,10,"1/3",1000,10,1,TRUE,0,0,0.1,TRUE,"c(1, 5, 2, 6, 3, 7, 4, 8)",0,"A","stable",0.01,TRUE,5
1,1,"2","2016-04-07 15:02:37.561",1460066557560656896,1460066552593,"state",4.9,"4",3.5,4.9,4,326.666666666667,"2/3",100,10,"1/3",1000,10,1,TRUE,0,0,0.1,TRUE,"c(1, 5, 2, 6, 3, 7, 4, 8)",0,"A","stable",0.01,TRUE,5
1,1,"2","2016-04-07 15:02:45.857",1460066565857282304,1460066560889,"state",0,"1",1,0,5,0,"2/3",100,10,"1/3",1000,10,1,TRUE,0,0,0.1,TRUE,"c(1, 5, 2, 6, 3, 7, 4, 8)",0,"A","stable",0.01,TRUE,5
1,1,"2","2016-04-07 15:02:45.857",1460066565857282304,1460066560889,"state",0,"2",2.5,0,5,0,"2/3",100,10,"1/3",1000,10,1,TRUE,0,0,0.1,TRUE,"c(1, 5, 2, 6, 3, 7, 4, 8)",0,"A","stable",0.01,TRUE,5
1,1,"2","2016-04-07 15:02:45.857",1460066565857282304,1460066560889,"state",0,"3",3.5,0,5,0,"2/3",100,10,"1/3",1000,10,1,TRUE,0,0,0.1,TRUE,"c(1, 5, 2, 6, 3, 7, 4, 8)",0,"A","stable",0.01,TRUE,5
1,1,"2","2016-04-07 15:02:45.857",1460066565857282304,1460066560889,"state",4.9,"4",3.5,4.9,5,326.666666666667,"2/3",100,10,"1/3",1000,10,1,TRUE,0,0,0.1,TRUE,"c(1, 5, 2, 6, 3, 7, 4, 8)",0,"A","stable",0.01,TRUE,5
2,1,"2","2016-04-07 15:03:02.072",1460066582071924480,1460066577108,"state",0,"1",1.5,0,-1,0,"2/3",100,10,"1/3",1000,10,2,TRUE,0,0,0,TRUE,"c(1, 5, 2, 6, 3, 7, 4, 8)",0,"A","stable",0.01,TRUE,0
2,1,"2","2016-04-07 15:03:02.072",1460066582071924480,1460066577108,"state",0,"2",2.5,0,-1,0,"2/3",100,10,"1/3",1000,10,2,TRUE,0,0,0,TRUE,"c(1, 5, 2, 6, 3, 7, 4, 8)",0,"A","stable",0.01,TRUE,0
2,1,"2","2016-04-07 15:03:02.072",1460066582071924480,1460066577108,"state",0,"3",3.5,0,-1,0,"2/3",100,10,"1/3",1000,10,2,TRUE,0,0,0,TRUE,"c(1, 5, 2, 6, 3, 7, 4, 8)",0,"A","stable",0.01,TRUE,0
2,1,"2","2016-04-07 15:03:02.072",1460066582071924480,1460066577108,"state",0,"4",3.5,0,-1,0,"2/3",100,10,"1/3",1000,10,2,TRUE,0,0,0,TRUE,"c(1, 5, 2, 6, 3, 7, 4, 8)",0,"A","stable",0.01,TRUE,0
2,1,"2","2016-04-07 15:03:03.127",1460066583126553856,1460066578159,"state",0,"1",1.5,0,-1,0,"2/3",100,10,"1/3",1000,10,2,TRUE,0,0,0,TRUE,"c(1, 5, 2, 6, 3, 7, 4, 8)",0,"A","stable",0.01,TRUE,0
2,1,"2","2016-04-07 15:03:03.127",1460066583126553856,1460066578159,"state",0,"2",2.5,0,-1,0,"2/3",100,10,"1/3",1000,10,2,TRUE,0,0,0,TRUE,"c(1, 5, 2, 6, 3, 7, 4, 8)",0,"A","stable",0.01,TRUE,0
2,1,"2","2016-04-07 15:03:03.127",1460066583126553856,1460066578159,"state",0,"3",3.5,0,-1,0,"2/3",100,10,"1/3",1000,10,2,TRUE,0,0,0,TRUE,"c(1, 5, 2, 6, 3, 7, 4, 8)",0,"A","stable",0.01,TRUE,0
2,1,"2","2016-04-07 15:03:03.127",1460066583126553856,1460066578159,"state",0,"4",3.5,0,-1,0,"2/3",100,10,"1/3",1000,10,2,TRUE,0,0,0,TRUE,"c(1, 5, 2, 6, 3, 7, 4, 8)",0,"A","stable",0.01,TRUE,0
2,1,"2","2016-04-07 15:03:04.129",1460066584129131776,1460066579164,"state",0,"1",1.5,0,-1,0,"2/3",100,10,"1/3",1000,10,2,TRUE,0,0,0,TRUE,"c(1, 5, 2, 6, 3, 7, 4, 8)",0,"A","stable",0.01,TRUE,0
2,1,"2","2016-04-07 15:03:04.129",1460066584129131776,1460066579164,"state",0,"2",2.5,0,-1,0,"2/3",100,10,"1/3",1000,10,2,TRUE,0,0,0,TRUE,"c(1, 5, 2, 6, 3, 7, 4, 8)",0,"A","stable",0.01,TRUE,0
2,1,"2","2016-04-07 15:03:04.129",1460066584129131776,1460066579164,"state",0,"3",3.5,0,-1,0,"2/3",100,10,"1/3",1000,10,2,TRUE,0,0,0,TRUE,"c(1, 5, 2, 6, 3, 7, 4, 8)",0,"A","stable",0.01,TRUE,0
2,1,"2","2016-04-07 15:03:04.129",1460066584129131776,1460066579164,"state",0,"4",3.5,0,-1,0,"2/3",100,10,"1/3",1000,10,2,TRUE,0,0,0,TRUE,"c(1, 5, 2, 6, 3, 7, 4, 8)",0,"A","stable",0.01,TRUE,0
2,1,"2","2016-04-07 15:03:05.126",1460066585126304768,1460066580159,"state",0,"1",1.5,0,-1,0,"2/3",100,10,"1/3",1000,10,2,TRUE,0,0,0,TRUE,"c(1, 5, 2, 6, 3, 7, 4, 8)",0,"A","stable",0.01,TRUE,0
2,1,"2","2016-04-07 15:03:05.126",1460066585126304768,1460066580159,"state",0,"2",2.5,0,-1,0,"2/3",100,10,"1/3",1000,10,2,TRUE,0,0,0,TRUE,"c(1, 5, 2, 6, 3, 7, 4, 8)",0,"A","stable",0.01,TRUE,0
2,1,"2","2016-04-07 15:03:05.126",1460066585126304768,1460066580159,"state",0,"3",3.5,0,-1,0,"2/3",100,10,"1/3",1000,10,2,TRUE,0,0,0,TRUE,"c(1, 5, 2, 6, 3, 7, 4, 8)",0,"A","stable",0.01,TRUE,0
2,1,"2","2016-04-07 15:03:05.126",1460066585126304768,1460066580159,"state",0,"4",3.5,0,-1,0,"2/3",100,10,"1/3",1000,10,2,TRUE,0,0,0,TRUE,"c(1, 5, 2, 6, 3, 7, 4, 8)",0,"A","stable",0.01,TRUE,0
2,1,"2","2016-04-07 15:03:06.130",1460066586130428928,1460066581165,"state",0,"1",1.5,0,-1,0,"2/3",100,10,"1/3",1000,10,2,TRUE,0,0,0,TRUE,"c(1, 5, 2, 6, 3, 7, 4, 8)",0,"A","stable",0.01,TRUE,0
2,1,"2","2016-04-07 15:03:06.130",1460066586130428928,1460066581165,"state",0,"2",2.5,0,-1,0,"2/3",100,10,"1/3",1000,10,2,TRUE,0,0,0,TRUE,"c(1, 5, 2, 6, 3, 7, 4, 8)",0,"A","stable",0.01,TRUE,0
2,1,"2","2016-04-07 15:03:06.130",1460066586130428928,1460066581165,"state",0,"3",3.5,0,-1,0,"2/3",100,10,"1/3",1000,10,2,TRUE,0,0,0,TRUE,"c(1, 5, 2, 6, 3, 7, 4, 8)",0,"A","stable",0.01,TRUE,0
2,1,"2","2016-04-07 15:03:06.130",1460066586130428928,1460066581165,"state",0,"4",3.5,0,-1,0,"2/3",100,10,"1/3",1000,10,2,TRUE,0,0,0,TRUE,"c(1, 5, 2, 6, 3, 7, 4, 8)",0,"A","stable",0.01,TRUE,0
2,1,"2","2016-04-07 15:03:07.143",1460066587142571776,1460066582173,"state",0,"1",1.5,0,-1,0,"2/3",100,10,"1/3",1000,10,2,TRUE,0,0,0,TRUE,"c(1, 5, 2, 6, 3, 7, 4, 8)",0,"A","stable",0.01,TRUE,0
2,1,"2","2016-04-07 15:03:07.143",1460066587142571776,1460066582173,"state",0,"2",2.5,0,-1,0,"2/3",100,10,"1/3",1000,10,2,TRUE,0,0,0,TRUE,"c(1, 5, 2, 6, 3, 7, 4, 8)",0,"A","stable",0.01,TRUE,0
2,1,"2","2016-04-07 15:03:07.143",1460066587142571776,1460066582173,"state",0,"3",3.5,0,-1,0,"2/3",100,10,"1/3",1000,10,2,TRUE,0,0,0,TRUE,"c(1, 5, 2, 6, 3, 7, 4, 8)",0,"A","stable",0.01,TRUE,0
2,1,"2","2016-04-07 15:03:07.143",1460066587142571776,1460066582173,"state",0,"4",3.5,0,-1,0,"2/3",100,10,"1/3",1000,10,2,TRUE,0,0,0,TRUE,"c(1, 5, 2, 6, 3, 7, 4, 8)",0,"A","stable",0.01,TRUE,0
2,1,"2","2016-04-07 15:03:08.125",1460066588125049344,1460066583160,"state",0,"1",1.5,0,-1,0,"2/3",100,10,"1/3",1000,10,2,TRUE,0,0,0,TRUE,"c(1, 5, 2, 6, 3, 7, 4, 8)",0,"A","stable",0.01,TRUE,0
2,1,"2","2016-04-07 15:03:08.125",1460066588125049344,1460066583160,"state",0,"2",2.5,0,-1,0,"2/3",100,10,"1/3",1000,10,2,TRUE,0,0,0,TRUE,"c(1, 5, 2, 6, 3, 7, 4, 8)",0,"A","stable",0.01,TRUE,0
2,1,"2","2016-04-07 15:03:08.125",1460066588125049344,1460066583160,"state",0,"3",3.5,0,-1,0,"2/3",100,10,"1/3",1000,10,2,TRUE,0,0,0,TRUE,"c(1, 5, 2, 6, 3, 7, 4, 8)",0,"A","stable",0.01,TRUE,0
2,1,"2","2016-04-07 15:03:08.125",1460066588125049344,1460066583160,"state",0,"4",3.5,0,-1,0,"2/3",100,10,"1/3",1000,10,2,TRUE,0,0,0,TRUE,"c(1, 5, 2, 6, 3, 7, 4, 8)",0,"A","stable",0.01,TRUE,0
2,1,"2","2016-04-07 15:03:09.122",1460066589121836288,1460066584158,"state",0,"1",1.5,0,-1,0,"2/3",100,10,"1/3",1000,10,2,TRUE,0,0,0,TRUE,"c(1, 5, 2, 6, 3, 7, 4, 8)",0,"A","stable",0.01,TRUE,0
2,1,"2","2016-04-07 15:03:09.122",1460066589121836288,1460066584158,"state",0,"2",2.5,0,-1,0,"2/3",100,10,"1/3",1000,10,2,TRUE,0,0,0,TRUE,"c(1, 5, 2, 6, 3, 7, 4, 8)",0,"A","stable",0.01,TRUE,0
2,1,"2","2016-04-07 15:03:09.122",1460066589121836288,1460066584158,"state",0,"3",3.5,0,-1,0,"2/3",100,10,"1/3",1000,10,2,TRUE,0,0,0,TRUE,"c(1, 5, 2, 6, 3, 7, 4, 8)",0,"A","stable",0.01,TRUE,0
2,1,"2","2016-04-07 15:03:09.122",1460066589121836288,1460066584158,"state",0,"4",3.5,0,-1,0,"2/3",100,10,"1/3",1000,10,2,TRUE,0,0,0,TRUE,"c(1, 5, 2, 6, 3, 7, 4, 8)",0,"A","stable",0.01,TRUE,0
2,1,"2","2016-04-07 15:03:10.132",1460066590132460544,1460066585166,"state",0,"1",1.5,0,-1,0,"2/3",100,10,"1/3",1000,10,2,TRUE,0,0,0,TRUE,"c(1, 5, 2, 6, 3, 7, 4, 8)",0,"A","stable",0.01,TRUE,0
2,1,"2","2016-04-07 15:03:10.132",1460066590132460544,1460066585166,"state",0,"2",2.5,0,-1,0,"2/3",100,10,"1/3",1000,10,2,TRUE,0,0,0,TRUE,"c(1, 5, 2, 6, 3, 7, 4, 8)",0,"A","stable",0.01,TRUE,0
2,1,"2","2016-04-07 15:03:10.132",1460066590132460544,1460066585166,"state",0,"3",3.5,0,-1,0,"2/3",100,10,"1/3",1000,10,2,TRUE,0,0,0,TRUE,"c(1, 5, 2, 6, 3, 7, 4, 8)",0,"A","stable",0.01,TRUE,0
2,1,"2","2016-04-07 15:03:10.132",1460066590132460544,1460066585166,"state",0,"4",3.5,0,-1,0,"2/3",100,10,"1/3",1000,10,2,TRUE,0,0,0,TRUE,"c(1, 5, 2, 6, 3, 7, 4, 8)",0,"A","stable",0.01,TRUE,0
2,1,"2","2016-04-07 15:03:11.127",1460066591126668800,1460066586162,"state",0,"1",1.5,0,-1,0,"2/3",100,10,"1/3",1000,10,2,TRUE,0,0,0,TRUE,"c(1, 5, 2, 6, 3, 7, 4, 8)",0,"A","stable",0.01,TRUE,0
2,1,"2","2016-04-07 15:03:11.127",1460066591126668800,1460066586162,"state",0,"2",2.5,0,-1,0,"2/3",100,10,"1/3",1000,10,2,TRUE,0,0,0,TRUE,"c(1, 5, 2, 6, 3, 7, 4, 8)",0,"A","stable",0.01,TRUE,0
2,1,"2","2016-04-07 15:03:11.127",1460066591126668800,1460066586162,"state",0,"3",3.5,0,-1,0,"2/3",100,10,"1/3",1000,10,2,TRUE,0,0,0,TRUE,"c(1, 5, 2, 6, 3, 7, 4, 8)",0,"A","stable",0.01,TRUE,0
2,1,"2","2016-04-07 15:03:11.127",1460066591126668800,1460066586162,"state",0,"4",3.5,0,-1,0,"2/3",100,10,"1/3",1000,10,2,TRUE,0,0,0,TRUE,"c(1, 5, 2, 6, 3, 7, 4, 8)",0,"A","stable",0.01,TRUE,0
2,1,"2","2016-04-07 15:03:12.129",1460066592129160192,1460066587165,"state",0,"1",1.5,0,-1,0,"2/3",100,10,"1/3",1000,10,2,TRUE,0,0,0,TRUE,"c(1, 5, 2, 6, 3, 7, 4, 8)",0,"A","stable",0.01,TRUE,0
2,1,"2","2016-04-07 15:03:12.129",1460066592129160192,1460066587165,"state",0,"2",2.5,0,-1,0,"2/3",100,10,"1/3",1000,10,2,TRUE,0,0,0,TRUE,"c(1, 5, 2, 6, 3, 7, 4, 8)",0,"A","stable",0.01,TRUE,0
2,1,"2","2016-04-07 15:03:12.129",1460066592129160192,1460066587165,"state",0,"3",3.5,0,-1,0,"2/3",100,10,"1/3",1000,10,2,TRUE,0,0,0,TRUE,"c(1, 5, 2, 6, 3, 7, 4, 8)",0,"A","stable",0.01,TRUE,0
2,1,"2","2016-04-07 15:03:12.129",1460066592129160192,1460066587165,"state",0,"4",3.5,0,-1,0,"2/3",100,10,"1/3",1000,10,2,TRUE,0,0,0,TRUE,"c(1, 5, 2, 6, 3, 7, 4, 8)",0,"A","stable",0.01,TRUE,0
2,1,"2","2016-04-07 15:03:13.125",1460066593124844544,1460066588159,"state",0,"1",1.5,0,-1,0,"2/3",100,10,"1/3",1000,10,2,TRUE,0,0,0,TRUE,"c(1, 5, 2, 6, 3, 7, 4, 8)",0,"A","stable",0.01,TRUE,0
2,1,"2","2016-04-07 15:03:13.125",1460066593124844544,1460066588159,"state",0,"2",2.5,0,-1,0,"2/3",100,10,"1/3",1000,10,2,TRUE,0,0,0,TRUE,"c(1, 5, 2, 6, 3, 7, 4, 8)",0,"A","stable",0.01,TRUE,0
2,1,"2","2016-04-07 15:03:13.125",1460066593124844544,1460066588159,"state",0,"3",3.5,0,-1,0,"2/3",100,10,"1/3",1000,10,2,TRUE,0,0,0,TRUE,"c(1, 5, 2, 6, 3, 7, 4, 8)",0,"A","stable",0.01,TRUE,0
2,1,"2","2016-04-07 15:03:13.125",1460066593124844544,1460066588159,"state",0,"4",3.5,0,-1,0,"2/3",100,10,"1/3",1000,10,2,TRUE,0,0,0,TRUE,"c(1, 5, 2, 6, 3, 7, 4, 8)",0,"A","stable",0.01,TRUE,0
2,1,"2","2016-04-07 15:03:14.126",1460066594125769216,1460066589159,"state",0,"1",1.5,0,-1,0,"2/3",100,10,"1/3",1000,10,2,TRUE,0,0,0,TRUE,"c(1, 5, 2, 6, 3, 7, 4, 8)",0,"A","stable",0.01,TRUE,0
2,1,"2","2016-04-07 15:03:14.126",1460066594125769216,1460066589159,"state",0,"2",2.5,0,-1,0,"2/3",100,10,"1/3",1000,10,2,TRUE,0,0,0,TRUE,"c(1, 5, 2, 6, 3, 7, 4, 8)",0,"A","stable",0.01,TRUE,0
2,1,"2","2016-04-07 15:03:14.126",1460066594125769216,1460066589159,"state",0,"3",3.5,0,-1,0,"2/3",100,10,"1/3",1000,10,2,TRUE,0,0,0,TRUE,"c(1, 5, 2, 6, 3, 7, 4, 8)",0,"A","stable",0.01,TRUE,0
2,1,"2","2016-04-07 15:03:14.126",1460066594125769216,1460066589159,"state",0,"4",3.5,0,-1,0,"2/3",100,10,"1/3",1000,10,2,TRUE,0,0,0,TRUE,"c(1, 5, 2, 6, 3, 7, 4, 8)",0,"A","stable",0.01,TRUE,0
2,1,"2","2016-04-07 15:03:15.127",1460066595126867712,1460066590163,"state",0,"1",1.5,0,-1,0,"2/3",100,10,"1/3",1000,10,2,TRUE,0,0,0,TRUE,"c(1, 5, 2, 6, 3, 7, 4, 8)",0,"A","stable",0.01,TRUE,0
2,1,"2","2016-04-07 15:03:15.127",1460066595126867712,1460066590163,"state",0,"2",2.5,0,-1,0,"2/3",100,10,"1/3",1000,10,2,TRUE,0,0,0,TRUE,"c(1, 5, 2, 6, 3, 7, 4, 8)",0,"A","stable",0.01,TRUE,0
2,1,"2","2016-04-07 15:03:15.127",1460066595126867712,1460066590163,"state",0,"3",3.5,0,-1,0,"2/3",100,10,"1/3",1000,10,2,TRUE,0,0,0,TRUE,"c(1, 5, 2, 6, 3, 7, 4, 8)",0,"A","stable",0.01,TRUE,0
2,1,"2","2016-04-07 15:03:15.127",1460066595126867712,1460066590163,"state",0,"4",3.5,0,-1,0,"2/3",100,10,"1/3",1000,10,2,TRUE,0,0,0,TRUE,"c(1, 5, 2, 6, 3, 7, 4, 8)",0,"A","stable",0.01,TRUE,0
2,1,"2","2016-04-07 15:03:16.136",1460066596136446464,1460066591169,"state",0,"1",1.5,0,-1,0,"2/3",100,10,"1/3",1000,10,2,TRUE,0,0,0,TRUE,"c(1, 5, 2, 6, 3, 7, 4, 8)",0,"A","stable",0.01,TRUE,0
2,1,"2","2016-04-07 15:03:16.136",1460066596136446464,1460066591169,"state",0,"2",2.5,0,-1,0,"2/3",100,10,"1/3",1000,10,2,TRUE,0,0,0,TRUE,"c(1, 5, 2, 6, 3, 7, 4, 8)",0,"A","stable",0.01,TRUE,0
2,1,"2","2016-04-07 15:03:16.136",1460066596136446464,1460066591169,"state",0,"3",3.5,0,-1,0,"2/3",100,10,"1/3",1000,10,2,TRUE,0,0,0,TRUE,"c(1, 5, 2, 6, 3, 7, 4, 8)",0,"A","stable",0.01,TRUE,0
2,1,"2","2016-04-07 15:03:16.136",1460066596136446464,1460066591169,"state",0,"4",3.5,0,-1,0,"2/3",100,10,"1/3",1000,10,2,TRUE,0,0,0,TRUE,"c(1, 5, 2, 6, 3, 7, 4, 8)",0,"A","stable",0.01,TRUE,0
2,1,"2","2016-04-07 15:03:17.132",1460066597131715584,1460066592164,"state",0,"1",1.5,0,-1,0,"2/3",100,10,"1/3",1000,10,2,TRUE,0,0,0,TRUE,"c(1, 5, 2, 6, 3, 7, 4, 8)",0,"A","stable",0.01,TRUE,0
2,1,"2","2016-04-07 15:03:17.132",1460066597131715584,1460066592164,"state",0,"2",2.5,0,-1,0,"2/3",100,10,"1/3",1000,10,2,TRUE,0,0,0,TRUE,"c(1, 5, 2, 6, 3, 7, 4, 8)",0,"A","stable",0.01,TRUE,0
2,1,"2","2016-04-07 15:03:17.132",1460066597131715584,1460066592164,"state",0,"3",3.5,0,-1,0,"2/3",100,10,"1/3",1000,10,2,TRUE,0,0,0,TRUE,"c(1, 5, 2, 6, 3, 7, 4, 8)",0,"A","stable",0.01,TRUE,0
2,1,"2","2016-04-07 15:03:17.132",1460066597131715584,1460066592164,"state",0,"4",3.5,0,-1,0,"2/3",100,10,"1/3",1000,10,2,TRUE,0,0,0,TRUE,"c(1, 5, 2, 6, 3, 7, 4, 8)",0,"A","stable",0.01,TRUE,0
2,1,"2","2016-04-07 15:03:18.132",1460066598132048384,1460066593165,"state",0,"1",1.5,0,-1,0,"2/3",100,10,"1/3",1000,10,2,TRUE,0,0,0,TRUE,"c(1, 5, 2, 6, 3, 7, 4, 8)",0,"A","stable",0.01,TRUE,0
2,1,"2","2016-04-07 15:03:18.132",1460066598132048384,1460066593165,"state",0,"2",2.5,0,-1,0,"2/3",100,10,"1/3",1000,10,2,TRUE,0,0,0,TRUE,"c(1, 5, 2, 6, 3, 7, 4, 8)",0,"A","stable",0.01,TRUE,0
2,1,"2","2016-04-07 15:03:18.132",1460066598132048384,1460066593165,"state",0,"3",3.5,0,-1,0,"2/3",100,10,"1/3",1000,10,2,TRUE,0,0,0,TRUE,"c(1, 5, 2, 6, 3, 7, 4, 8)",0,"A","stable",0.01,TRUE,0
2,1,"2","2016-04-07 15:03:18.132",1460066598132048384,1460066593165,"state",0,"4",3.5,0,-1,0,"2/3",100,10,"1/3",1000,10,2,TRUE,0,0,0,TRUE,"c(1, 5, 2, 6, 3, 7, 4, 8)",0,"A","stable",0.01,TRUE,0
2,1,"2","2016-04-07 15:03:19.128",1460066599128261632,1460066594161,"state",0,"1",1.5,0,-1,0,"2/3",100,10,"1/3",1000,10,2,TRUE,0,0,0,TRUE,"c(1, 5, 2, 6, 3, 7, 4, 8)",0,"A","stable",0.01,TRUE,0
2,1,"2","2016-04-07 15:03:19.128",1460066599128261632,1460066594161,"state",0,"2",2.5,0,-1,0,"2/3",100,10,"1/3",1000,10,2,TRUE,0,0,0,TRUE,"c(1, 5, 2, 6, 3, 7, 4, 8)",0,"A","stable",0.01,TRUE,0
2,1,"2","2016-04-07 15:03:19.128",1460066599128261632,1460066594161,"state",0,"3",3.5,0,-1,0,"2/3",100,10,"1/3",1000,10,2,TRUE,0,0,0,TRUE,"c(1, 5, 2, 6, 3, 7, 4, 8)",0,"A","stable",0.01,TRUE,0
2,1,"2","2016-04-07 15:03:19.128",1460066599128261632,1460066594161,"state",0,"4",3.5,0,-1,0,"2/3",100,10,"1/3",1000,10,2,TRUE,0,0,0,TRUE,"c(1, 5, 2, 6, 3, 7, 4, 8)",0,"A","stable",0.01,TRUE,0
2,1,"2","2016-04-07 15:03:20.126",1460066600126395392,1460066595160,"state",0,"1",1.5,0,-1,0,"2/3",100,10,"1/3",1000,10,2,TRUE,0,0,0,TRUE,"c(1, 5, 2, 6, 3, 7, 4, 8)",0,"A","stable",0.01,TRUE,0
2,1,"2","2016-04-07 15:03:20.126",1460066600126395392,1460066595160,"state",0,"2",2.5,0,-1,0,"2/3",100,10,"1/3",1000,10,2,TRUE,0,0,0,TRUE,"c(1, 5, 2, 6, 3, 7, 4, 8)",0,"A","stable",0.01,TRUE,0
2,1,"2","2016-04-07 15:03:20.126",1460066600126395392,1460066595160,"state",0,"3",3.5,0,-1,0,"2/3",100,10,"1/3",1000,10,2,TRUE,0,0,0,TRUE,"c(1, 5, 2, 6, 3, 7, 4, 8)",0,"A","stable",0.01,TRUE,0
2,1,"2","2016-04-07 15:03:20.126",1460066600126395392,1460066595160,"state",0,"4",3.5,0,-1,0,"2/3",100,10,"1/3",1000,10,2,TRUE,0,0,0,TRUE,"c(1, 5, 2, 6, 3, 7, 4, 8)",0,"A","stable",0.01,TRUE,0
2,1,"2","2016-04-07 15:03:21.128",1460066601127571456,1460066596159,"state",0,"1",1.5,0,-1,0,"2/3",100,10,"1/3",1000,10,2,TRUE,0,0,0,TRUE,"c(1, 5, 2, 6, 3, 7, 4, 8)",0,"A","stable",0.01,TRUE,0
2,1,"2","2016-04-07 15:03:21.128",1460066601127571456,1460066596159,"state",0,"2",2.5,0,-1,0,"2/3",100,10,"1/3",1000,10,2,TRUE,0,0,0,TRUE,"c(1, 5, 2, 6, 3, 7, 4, 8)",0,"A","stable",0.01,TRUE,0
2,1,"2","2016-04-07 15:03:21.128",1460066601127571456,1460066596159,"state",0,"3",3.5,0,-1,0,"2/3",100,10,"1/3",1000,10,2,TRUE,0,0,0,TRUE,"c(1, 5, 2, 6, 3, 7, 4, 8)",0,"A","stable",0.01,TRUE,0
2,1,"2","2016-04-07 15:03:21.128",1460066601127571456,1460066596159,"state",0,"4",3.5,0,-1,0,"2/3",100,10,"1/3",1000,10,2,TRUE,0,0,0,TRUE,"c(1, 5, 2, 6, 3, 7, 4, 8)",0,"A","stable",0.01,TRUE,0
2,1,"2","2016-04-07 15:03:22.152",1460066602151665408,1460066597182,"state",0,"1",1.5,0,-1,0,"2/3",100,10,"1/3",1000,10,2,TRUE,0,0,0,TRUE,"c(1, 5, 2, 6, 3, 7, 4, 8)",0,"A","stable",0.01,TRUE,0
2,1,"2","2016-04-07 15:03:22.152",1460066602151665408,1460066597182,"state",0,"2",2.5,0,-1,0,"2/3",100,10,"1/3",1000,10,2,TRUE,0,0,0,TRUE,"c(1, 5, 2, 6, 3, 7, 4, 8)",0,"A","stable",0.01,TRUE,0
2,1,"2","2016-04-07 15:03:22.152",1460066602151665408,1460066597182,"state",0,"3",3.5,0,-1,0,"2/3",100,10,"1/3",1000,10,2,TRUE,0,0,0,TRUE,"c(1, 5, 2, 6, 3, 7, 4, 8)",0,"A","stable",0.01,TRUE,0
2,1,"2","2016-04-07 15:03:22.152",1460066602151665408,1460066597182,"state",0,"4",3.5,0,-1,0,"2/3",100,10,"1/3",1000,10,2,TRUE,0,0,0,TRUE,"c(1, 5, 2, 6, 3, 7, 4, 8)",0,"A","stable",0.01,TRUE,0
2,1,"2","2016-04-07 15:03:23.129",1460066603128977920,1460066598162,"state",0,"1",1.5,0,-1,0,"2/3",100,10,"1/3",1000,10,2,TRUE,0,0,0,TRUE,"c(1, 5, 2, 6, 3, 7, 4, 8)",0,"A","stable",0.01,TRUE,0
2,1,"2","2016-04-07 15:03:23.129",1460066603128977920,1460066598162,"state",0,"2",2.5,0,-1,0,"2/3",100,10,"1/3",1000,10,2,TRUE,0,0,0,TRUE,"c(1, 5, 2, 6, 3, 7, 4, 8)",0,"A","stable",0.01,TRUE,0
2,1,"2","2016-04-07 15:03:23.129",1460066603128977920,1460066598162,"state",0,"3",3.5,0,-1,0,"2/3",100,10,"1/3",1000,10,2,TRUE,0,0,0,TRUE,"c(1, 5, 2, 6, 3, 7, 4, 8)",0,"A","stable",0.01,TRUE,0
2,1,"2","2016-04-07 15:03:23.129",1460066603128977920,1460066598162,"state",0,"4",3.5,0,-1,0,"2/3",100,10,"1/3",1000,10,2,TRUE,0,0,0,TRUE,"c(1, 5, 2, 6, 3, 7, 4, 8)",0,"A","stable",0.01,TRUE,0
2,1,"2","2016-04-07 15:03:24.128",1460066604128175872,1460066599164,"state",0,"1",1.5,0,-1,0,"2/3",100,10,"1/3",1000,10,2,TRUE,0,0,0,TRUE,"c(1, 5, 2, 6, 3, 7, 4, 8)",0,"A","stable",0.01,TRUE,0
2,1,"2","2016-04-07 15:03:24.128",1460066604128175872,1460066599164,"state",0,"2",2.5,0,-1,0,"2/3",100,10,"1/3",1000,10,2,TRUE,0,0,0,TRUE,"c(1, 5, 2, 6, 3, 7, 4, 8)",0,"A","stable",0.01,TRUE,0
2,1,"2","2016-04-07 15:03:24.128",1460066604128175872,1460066599164,"state",0,"3",3.5,0,-1,0,"2/3",100,10,"1/3",1000,10,2,TRUE,0,0,0,TRUE,"c(1, 5, 2, 6, 3, 7, 4, 8)",0,"A","stable",0.01,TRUE,0
2,1,"2","2016-04-07 15:03:24.128",1460066604128175872,1460066599164,"state",0,"4",3.5,0,-1,0,"2/3",100,10,"1/3",1000,10,2,TRUE,0,0,0,TRUE,"c(1, 5, 2, 6, 3, 7, 4, 8)",0,"A","stable",0.01,TRUE,0
2,1,"2","2016-04-07 15:03:25.124",1460066605123562496,1460066600160,"state",0,"1",1.5,0,-1,0,"2/3",100,10,"1/3",1000,10,2,TRUE,0,0,0,TRUE,"c(1, 5, 2, 6, 3, 7, 4, 8)",0,"A","stable",0.01,TRUE,0
2,1,"2","2016-04-07 15:03:25.124",1460066605123562496,1460066600160,"state",0,"2",2.5,0,-1,0,"2/3",100,10,"1/3",1000,10,2,TRUE,0,0,0,TRUE,"c(1, 5, 2, 6, 3, 7, 4, 8)",0,"A","stable",0.01,TRUE,0
2,1,"2","2016-04-07 15:03:25.124",1460066605123562496,1460066600160,"state",0,"3",3.5,0,-1,0,"2/3",100,10,"1/3",1000,10,2,TRUE,0,0,0,TRUE,"c(1, 5, 2, 6, 3, 7, 4, 8)",0,"A","stable",0.01,TRUE,0
2,1,"2","2016-04-07 15:03:25.124",1460066605123562496,1460066600160,"state",0,"4",3.5,0,-1,0,"2/3",100,10,"1/3",1000,10,2,TRUE,0,0,0,TRUE,"c(1, 5, 2, 6, 3, 7, 4, 8)",0,"A","stable",0.01,TRUE,0
2,1,"2","2016-04-07 15:03:26.127",1460066606127450368,1460066601160,"state",0,"1",1.5,0,-1,0,"2/3",100,10,"1/3",1000,10,2,TRUE,0,0,0,TRUE,"c(1, 5, 2, 6, 3, 7, 4, 8)",0,"A","stable",0.01,TRUE,0
2,1,"2","2016-04-07 15:03:26.127",1460066606127450368,1460066601160,"state",0,"2",2.5,0,-1,0,"2/3",100,10,"1/3",1000,10,2,TRUE,0,0,0,TRUE,"c(1, 5, 2, 6, 3, 7, 4, 8)",0,"A","stable",0.01,TRUE,0
2,1,"2","2016-04-07 15:03:26.127",1460066606127450368,1460066601160,"state",0,"3",3.5,0,-1,0,"2/3",100,10,"1/3",1000,10,2,TRUE,0,0,0,TRUE,"c(1, 5, 2, 6, 3, 7, 4, 8)",0,"A","stable",0.01,TRUE,0
2,1,"2","2016-04-07 15:03:26.127",1460066606127450368,1460066601160,"state",0,"4",3.5,0,-1,0,"2/3",100,10,"1/3",1000,10,2,TRUE,0,0,0,TRUE,"c(1, 5, 2, 6, 3, 7, 4, 8)",0,"A","stable",0.01,TRUE,0
2,1,"2","2016-04-07 15:03:27.127",1460066607126916608,1460066602162,"state",0,"1",1.5,0,-1,0,"2/3",100,10,"1/3",1000,10,2,TRUE,0,0,0,TRUE,"c(1, 5, 2, 6, 3, 7, 4, 8)",0,"A","stable",0.01,TRUE,0
2,1,"2","2016-04-07 15:03:27.127",1460066607126916608,1460066602162,"state",0,"2",2.5,0,-1,0,"2/3",100,10,"1/3",1000,10,2,TRUE,0,0,0,TRUE,"c(1, 5, 2, 6, 3, 7, 4, 8)",0,"A","stable",0.01,TRUE,0
2,1,"2","2016-04-07 15:03:27.127",1460066607126916608,1460066602162,"state",0,"3",3.5,0,-1,0,"2/3",100,10,"1/3",1000,10,2,TRUE,0,0,0,TRUE,"c(1, 5, 2, 6, 3, 7, 4, 8)",0,"A","stable",0.01,TRUE,0
2,1,"2","2016-04-07 15:03:27.127",1460066607126916608,1460066602162,"state",0,"4",3.5,0,-1,0,"2/3",100,10,"1/3",1000,10,2,TRUE,0,0,0,TRUE,"c(1, 5, 2, 6, 3, 7, 4, 8)",0,"A","stable",0.01,TRUE,0
2,1,"2","2016-04-07 15:03:28.131",1460066608131331072,1460066603164,"state",0,"1",1.5,0,-1,0,"2/3",100,10,"1/3",1000,10,2,TRUE,0,0,0,TRUE,"c(1, 5, 2, 6, 3, 7, 4, 8)",0,"A","stable",0.01,TRUE,0
2,1,"2","2016-04-07 15:03:28.131",1460066608131331072,1460066603164,"state",0,"2",2.5,0,-1,0,"2/3",100,10,"1/3",1000,10,2,TRUE,0,0,0,TRUE,"c(1, 5, 2, 6, 3, 7, 4, 8)",0,"A","stable",0.01,TRUE,0
2,1,"2","2016-04-07 15:03:28.131",1460066608131331072,1460066603164,"state",0,"3",3.5,0,-1,0,"2/3",100,10,"1/3",1000,10,2,TRUE,0,0,0,TRUE,"c(1, 5, 2, 6, 3, 7, 4, 8)",0,"A","stable",0.01,TRUE,0
2,1,"2","2016-04-07 15:03:28.131",1460066608131331072,1460066603164,"state",0,"4",3.5,0,-1,0,"2/3",100,10,"1/3",1000,10,2,TRUE,0,0,0,TRUE,"c(1, 5, 2, 6, 3, 7, 4, 8)",0,"A","stable",0.01,TRUE,0
2,1,"2","2016-04-07 15:03:29.128",1460066609128017152,1460066604161,"state",0,"1",1.5,0,-1,0,"2/3",100,10,"1/3",1000,10,2,TRUE,0,0,0,TRUE,"c(1, 5, 2, 6, 3, 7, 4, 8)",0,"A","stable",0.01,TRUE,0
2,1,"2","2016-04-07 15:03:29.128",1460066609128017152,1460066604161,"state",0,"2",2.5,0,-1,0,"2/3",100,10,"1/3",1000,10,2,TRUE,0,0,0,TRUE,"c(1, 5, 2, 6, 3, 7, 4, 8)",0,"A","stable",0.01,TRUE,0
2,1,"2","2016-04-07 15:03:29.128",1460066609128017152,1460066604161,"state",0,"3",3.5,0,-1,0,"2/3",100,10,"1/3",1000,10,2,TRUE,0,0,0,TRUE,"c(1, 5, 2, 6, 3, 7, 4, 8)",0,"A","stable",0.01,TRUE,0
2,1,"2","2016-04-07 15:03:29.128",1460066609128017152,1460066604161,"state",0,"4",3.5,0,-1,0,"2/3",100,10,"1/3",1000,10,2,TRUE,0,0,0,TRUE,"c(1, 5, 2, 6, 3, 7, 4, 8)",0,"A","stable",0.01,TRUE,0
2,1,"2","2016-04-07 15:03:30.125",1460066610125075712,1460066605160,"state",0,"1",1.5,0,-1,0,"2/3",100,10,"1/3",1000,10,2,TRUE,0,0,0,TRUE,"c(1, 5, 2, 6, 3, 7, 4, 8)",0,"A","stable",0.01,TRUE,0
2,1,"2","2016-04-07 15:03:30.125",1460066610125075712,1460066605160,"state",0,"2",2.5,0,-1,0,"2/3",100,10,"1/3",1000,10,2,TRUE,0,0,0,TRUE,"c(1, 5, 2, 6, 3, 7, 4, 8)",0,"A","stable",0.01,TRUE,0
2,1,"2","2016-04-07 15:03:30.125",1460066610125075712,1460066605160,"state",0,"3",3.5,0,-1,0,"2/3",100,10,"1/3",1000,10,2,TRUE,0,0,0,TRUE,"c(1, 5, 2, 6, 3, 7, 4, 8)",0,"A","stable",0.01,TRUE,0
2,1,"2","2016-04-07 15:03:30.125",1460066610125075712,1460066605160,"state",0,"4",3.5,0,-1,0,"2/3",100,10,"1/3",1000,10,2,TRUE,0,0,0,TRUE,"c(1, 5, 2, 6, 3, 7, 4, 8)",0,"A","stable",0.01,TRUE,0
2,1,"2","2016-04-07 15:03:31.137",1460066611137313024,1460066606171,"state",0,"1",1.5,0,-1,0,"2/3",100,10,"1/3",1000,10,2,TRUE,0,0,0,TRUE,"c(1, 5, 2, 6, 3, 7, 4, 8)",0,"A","stable",0.01,TRUE,0
2,1,"2","2016-04-07 15:03:31.137",1460066611137313024,1460066606171,"state",0,"2",2.5,0,-1,0,"2/3",100,10,"1/3",1000,10,2,TRUE,0,0,0,TRUE,"c(1, 5, 2, 6, 3, 7, 4, 8)",0,"A","stable",0.01,TRUE,0
2,1,"2","2016-04-07 15:03:31.137",1460066611137313024,1460066606171,"state",0,"3",3.5,0,-1,0,"2/3",100,10,"1/3",1000,10,2,TRUE,0,0,0,TRUE,"c(1, 5, 2, 6, 3, 7, 4, 8)",0,"A","stable",0.01,TRUE,0
2,1,"2","2016-04-07 15:03:31.137",1460066611137313024,1460066606171,"state",0,"4",3.5,0,-1,0,"2/3",100,10,"1/3",1000,10,2,TRUE,0,0,0,TRUE,"c(1, 5, 2, 6, 3, 7, 4, 8)",0,"A","stable",0.01,TRUE,0
2,1,"2","2016-04-07 15:03:32.130",1460066612130307072,1460066607162,"state",0,"1",1.5,0,-1,0,"2/3",100,10,"1/3",1000,10,2,TRUE,0,0,0,TRUE,"c(1, 5, 2, 6, 3, 7, 4, 8)",0,"A","stable",0.01,TRUE,0
2,1,"2","2016-04-07 15:03:32.130",1460066612130307072,1460066607162,"state",0,"2",2.5,0,-1,0,"2/3",100,10,"1/3",1000,10,2,TRUE,0,0,0,TRUE,"c(1, 5, 2, 6, 3, 7, 4, 8)",0,"A","stable",0.01,TRUE,0
2,1,"2","2016-04-07 15:03:32.130",1460066612130307072,1460066607162,"state",0,"3",3.5,0,-1,0,"2/3",100,10,"1/3",1000,10,2,TRUE,0,0,0,TRUE,"c(1, 5, 2, 6, 3, 7, 4, 8)",0,"A","stable",0.01,TRUE,0
2,1,"2","2016-04-07 15:03:32.130",1460066612130307072,1460066607162,"state",0,"4",3.5,0,-1,0,"2/3",100,10,"1/3",1000,10,2,TRUE,0,0,0,TRUE,"c(1, 5, 2, 6, 3, 7, 4, 8)",0,"A","stable",0.01,TRUE,0
2,1,"2","2016-04-07 15:03:33.132",1460066613132183552,1460066608165,"state",0,"1",1.5,0,-1,0,"2/3",100,10,"1/3",1000,10,2,TRUE,0,0,0,TRUE,"c(1, 5, 2, 6, 3, 7, 4, 8)",0,"A","stable",0.01,TRUE,0
2,1,"2","2016-04-07 15:03:33.132",1460066613132183552,1460066608165,"state",0,"2",2.5,0,-1,0,"2/3",100,10,"1/3",1000,10,2,TRUE,0,0,0,TRUE,"c(1, 5, 2, 6, 3, 7, 4, 8)",0,"A","stable",0.01,TRUE,0
2,1,"2","2016-04-07 15:03:33.132",1460066613132183552,1460066608165,"state",0,"3",3.5,0,-1,0,"2/3",100,10,"1/3",1000,10,2,TRUE,0,0,0,TRUE,"c(1, 5, 2, 6, 3, 7, 4, 8)",0,"A","stable",0.01,TRUE,0
2,1,"2","2016-04-07 15:03:33.132",1460066613132183552,1460066608165,"state",0,"4",3.5,0,-1,0,"2/3",100,10,"1/3",1000,10,2,TRUE,0,0,0,TRUE,"c(1, 5, 2, 6, 3, 7, 4, 8)",0,"A","stable",0.01,TRUE,0
2,1,"2","2016-04-07 15:03:34.128",1460066614128370176,1460066609161,"state",0,"1",1.5,0,-1,0,"2/3",100,10,"1/3",1000,10,2,TRUE,0,0,0,TRUE,"c(1, 5, 2, 6, 3, 7, 4, 8)",0,"A","stable",0.01,TRUE,0
2,1,"2","2016-04-07 15:03:34.128",1460066614128370176,1460066609161,"state",0,"2",2.5,0,-1,0,"2/3",100,10,"1/3",1000,10,2,TRUE,0,0,0,TRUE,"c(1, 5, 2, 6, 3, 7, 4, 8)",0,"A","stable",0.01,TRUE,0
2,1,"2","2016-04-07 15:03:34.128",1460066614128370176,1460066609161,"state",0,"3",3.5,0,-1,0,"2/3",100,10,"1/3",1000,10,2,TRUE,0,0,0,TRUE,"c(1, 5, 2, 6, 3, 7, 4, 8)",0,"A","stable",0.01,TRUE,0
2,1,"2","2016-04-07 15:03:34.128",1460066614128370176,1460066609161,"state",0,"4",3.5,0,-1,0,"2/3",100,10,"1/3",1000,10,2,TRUE,0,0,0,TRUE,"c(1, 5, 2, 6, 3, 7, 4, 8)",0,"A","stable",0.01,TRUE,0
2,1,"2","2016-04-07 15:03:35.131",1460066615131345664,1460066610163,"state",0,"1",1.5,0,-1,0,"2/3",100,10,"1/3",1000,10,2,TRUE,0,0,0,TRUE,"c(1, 5, 2, 6, 3, 7, 4, 8)",0,"A","stable",0.01,TRUE,0
2,1,"2","2016-04-07 15:03:35.131",1460066615131345664,1460066610163,"state",0,"2",2.5,0,-1,0,"2/3",100,10,"1/3",1000,10,2,TRUE,0,0,0,TRUE,"c(1, 5, 2, 6, 3, 7, 4, 8)",0,"A","stable",0.01,TRUE,0
2,1,"2","2016-04-07 15:03:35.131",1460066615131345664,1460066610163,"state",0,"3",3.5,0,-1,0,"2/3",100,10,"1/3",1000,10,2,TRUE,0,0,0,TRUE,"c(1, 5, 2, 6, 3, 7, 4, 8)",0,"A","stable",0.01,TRUE,0
2,1,"2","2016-04-07 15:03:35.131",1460066615131345664,1460066610163,"state",0,"4",3.5,0,-1,0,"2/3",100,10,"1/3",1000,10,2,TRUE,0,0,0,TRUE,"c(1, 5, 2, 6, 3, 7, 4, 8)",0,"A","stable",0.01,TRUE,0
2,1,"2","2016-04-07 15:03:36.129",1460066616129046016,1460066611162,"state",0,"1",1.5,0,-1,0,"2/3",100,10,"1/3",1000,10,2,TRUE,0,0,0,TRUE,"c(1, 5, 2, 6, 3, 7, 4, 8)",0,"A","stable",0.01,TRUE,0
2,1,"2","2016-04-07 15:03:36.129",1460066616129046016,1460066611162,"state",0,"2",2.5,0,-1,0,"2/3",100,10,"1/3",1000,10,2,TRUE,0,0,0,TRUE,"c(1, 5, 2, 6, 3, 7, 4, 8)",0,"A","stable",0.01,TRUE,0
2,1,"2","2016-04-07 15:03:36.129",1460066616129046016,1460066611162,"state",0,"3",3.5,0,-1,0,"2/3",100,10,"1/3",1000,10,2,TRUE,0,0,0,TRUE,"c(1, 5, 2, 6, 3, 7, 4, 8)",0,"A","stable",0.01,TRUE,0
2,1,"2","2016-04-07 15:03:36.129",1460066616129046016,1460066611162,"state",0,"4",3.5,0,-1,0,"2/3",100,10,"1/3",1000,10,2,TRUE,0,0,0,TRUE,"c(1, 5, 2, 6, 3, 7, 4, 8)",0,"A","stable",0.01,TRUE,0
2,1,"2","2016-04-07 15:03:37.131",1460066617130675456,1460066612166,"state",0,"1",1.5,0,-1,0,"2/3",100,10,"1/3",1000,10,2,TRUE,0,0,0,TRUE,"c(1, 5, 2, 6, 3, 7, 4, 8)",0,"A","stable",0.01,TRUE,0
2,1,"2","2016-04-07 15:03:37.131",1460066617130675456,1460066612166,"state",0,"2",2.5,0,-1,0,"2/3",100,10,"1/3",1000,10,2,TRUE,0,0,0,TRUE,"c(1, 5, 2, 6, 3, 7, 4, 8)",0,"A","stable",0.01,TRUE,0
2,1,"2","2016-04-07 15:03:37.131",1460066617130675456,1460066612166,"state",0,"3",3.5,0,-1,0,"2/3",100,10,"1/3",1000,10,2,TRUE,0,0,0,TRUE,"c(1, 5, 2, 6, 3, 7, 4, 8)",0,"A","stable",0.01,TRUE,0
2,1,"2","2016-04-07 15:03:37.131",1460066617130675456,1460066612166,"state",0,"4",3.5,0,-1,0,"2/3",100,10,"1/3",1000,10,2,TRUE,0,0,0,TRUE,"c(1, 5, 2, 6, 3, 7, 4, 8)",0,"A","stable",0.01,TRUE,0
2,1,"2","2016-04-07 15:03:38.127",1460066618126835712,1460066613159,"state",0,"1",1.5,0,-1,0,"2/3",100,10,"1/3",1000,10,2,TRUE,0,0,0,TRUE,"c(1, 5, 2, 6, 3, 7, 4, 8)",0,"A","stable",0.01,TRUE,0
2,1,"2","2016-04-07 15:03:38.127",1460066618126835712,1460066613159,"state",0,"2",2.5,0,-1,0,"2/3",100,10,"1/3",1000,10,2,TRUE,0,0,0,TRUE,"c(1, 5, 2, 6, 3, 7, 4, 8)",0,"A","stable",0.01,TRUE,0
2,1,"2","2016-04-07 15:03:38.127",1460066618126835712,1460066613159,"state",0,"3",3.5,0,-1,0,"2/3",100,10,"1/3",1000,10,2,TRUE,0,0,0,TRUE,"c(1, 5, 2, 6, 3, 7, 4, 8)",0,"A","stable",0.01,TRUE,0
2,1,"2","2016-04-07 15:03:38.127",1460066618126835712,1460066613159,"state",0,"4",3.5,0,-1,0,"2/3",100,10,"1/3",1000,10,2,TRUE,0,0,0,TRUE,"c(1, 5, 2, 6, 3, 7, 4, 8)",0,"A","stable",0.01,TRUE,0
2,1,"2","2016-04-07 15:03:39.125",1460066619124791296,1460066614159,"state",0,"1",1.5,0,-1,0,"2/3",100,10,"1/3",1000,10,2,TRUE,0,0,0,TRUE,"c(1, 5, 2, 6, 3, 7, 4, 8)",0,"A","stable",0.01,TRUE,0
2,1,"2","2016-04-07 15:03:39.125",1460066619124791296,1460066614159,"state",0,"2",2.5,0,-1,0,"2/3",100,10,"1/3",1000,10,2,TRUE,0,0,0,TRUE,"c(1, 5, 2, 6, 3, 7, 4, 8)",0,"A","stable",0.01,TRUE,0
2,1,"2","2016-04-07 15:03:39.125",1460066619124791296,1460066614159,"state",0,"3",3.5,0,-1,0,"2/3",100,10,"1/3",1000,10,2,TRUE,0,0,0,TRUE,"c(1, 5, 2, 6, 3, 7, 4, 8)",0,"A","stable",0.01,TRUE,0
2,1,"2","2016-04-07 15:03:39.125",1460066619124791296,1460066614159,"state",0,"4",3.5,0,-1,0,"2/3",100,10,"1/3",1000,10,2,TRUE,0,0,0,TRUE,"c(1, 5, 2, 6, 3, 7, 4, 8)",0,"A","stable",0.01,TRUE,0
2,1,"2","2016-04-07 15:03:40.130",1460066620129864960,1460066615163,"state",0,"1",1.5,0,-1,0,"2/3",100,10,"1/3",1000,10,2,TRUE,0,0,0,TRUE,"c(1, 5, 2, 6, 3, 7, 4, 8)",0,"A","stable",0.01,TRUE,0
2,1,"2","2016-04-07 15:03:40.130",1460066620129864960,1460066615163,"state",0,"2",2.5,0,-1,0,"2/3",100,10,"1/3",1000,10,2,TRUE,0,0,0,TRUE,"c(1, 5, 2, 6, 3, 7, 4, 8)",0,"A","stable",0.01,TRUE,0
2,1,"2","2016-04-07 15:03:40.130",1460066620129864960,1460066615163,"state",0,"3",3.5,0,-1,0,"2/3",100,10,"1/3",1000,10,2,TRUE,0,0,0,TRUE,"c(1, 5, 2, 6, 3, 7, 4, 8)",0,"A","stable",0.01,TRUE,0
2,1,"2","2016-04-07 15:03:40.130",1460066620129864960,1460066615163,"state",0,"4",3.5,0,-1,0,"2/3",100,10,"1/3",1000,10,2,TRUE,0,0,0,TRUE,"c(1, 5, 2, 6, 3, 7, 4, 8)",0,"A","stable",0.01,TRUE,0
2,1,"2","2016-04-07 15:03:41.126",1460066621125633792,1460066616162,"state",0,"1",1.5,0,-1,0,"2/3",100,10,"1/3",1000,10,2,TRUE,0,0,0,TRUE,"c(1, 5, 2, 6, 3, 7, 4, 8)",0,"A","stable",0.01,TRUE,0
2,1,"2","2016-04-07 15:03:41.126",1460066621125633792,1460066616162,"state",0,"2",2.5,0,-1,0,"2/3",100,10,"1/3",1000,10,2,TRUE,0,0,0,TRUE,"c(1, 5, 2, 6, 3, 7, 4, 8)",0,"A","stable",0.01,TRUE,0
2,1,"2","2016-04-07 15:03:41.126",1460066621125633792,1460066616162,"state",0,"3",3.5,0,-1,0,"2/3",100,10,"1/3",1000,10,2,TRUE,0,0,0,TRUE,"c(1, 5, 2, 6, 3, 7, 4, 8)",0,"A","stable",0.01,TRUE,0
2,1,"2","2016-04-07 15:03:41.126",1460066621125633792,1460066616162,"state",0,"4",3.5,0,-1,0,"2/3",100,10,"1/3",1000,10,2,TRUE,0,0,0,TRUE,"c(1, 5, 2, 6, 3, 7, 4, 8)",0,"A","stable",0.01,TRUE,0
2,1,"2","2016-04-07 15:03:42.127",1460066622127089664,1460066617162,"state",0,"1",1.5,0,-1,0,"2/3",100,10,"1/3",1000,10,2,TRUE,0,0,0,TRUE,"c(1, 5, 2, 6, 3, 7, 4, 8)",0,"A","stable",0.01,TRUE,0
2,1,"2","2016-04-07 15:03:42.127",1460066622127089664,1460066617162,"state",0,"2",2.5,0,-1,0,"2/3",100,10,"1/3",1000,10,2,TRUE,0,0,0,TRUE,"c(1, 5, 2, 6, 3, 7, 4, 8)",0,"A","stable",0.01,TRUE,0
2,1,"2","2016-04-07 15:03:42.127",1460066622127089664,1460066617162,"state",0,"3",3.5,0,-1,0,"2/3",100,10,"1/3",1000,10,2,TRUE,0,0,0,TRUE,"c(1, 5, 2, 6, 3, 7, 4, 8)",0,"A","stable",0.01,TRUE,0
2,1,"2","2016-04-07 15:03:42.127",1460066622127089664,1460066617162,"state",0,"4",3.5,0,-1,0,"2/3",100,10,"1/3",1000,10,2,TRUE,0,0,0,TRUE,"c(1, 5, 2, 6, 3, 7, 4, 8)",0,"A","stable",0.01,TRUE,0
2,1,"2","2016-04-07 15:03:43.130",1460066623129577472,1460066618161,"state",0,"1",1.5,0,-1,0,"2/3",100,10,"1/3",1000,10,2,TRUE,0,0,0,TRUE,"c(1, 5, 2, 6, 3, 7, 4, 8)",0,"A","stable",0.01,TRUE,0
2,1,"2","2016-04-07 15:03:43.130",1460066623129577472,1460066618161,"state",0,"2",2.5,0,-1,0,"2/3",100,10,"1/3",1000,10,2,TRUE,0,0,0,TRUE,"c(1, 5, 2, 6, 3, 7, 4, 8)",0,"A","stable",0.01,TRUE,0
2,1,"2","2016-04-07 15:03:43.130",1460066623129577472,1460066618161,"state",0,"3",3.5,0,-1,0,"2/3",100,10,"1/3",1000,10,2,TRUE,0,0,0,TRUE,"c(1, 5, 2, 6, 3, 7, 4, 8)",0,"A","stable",0.01,TRUE,0
2,1,"2","2016-04-07 15:03:43.130",1460066623129577472,1460066618161,"state",0,"4",3.5,0,-1,0,"2/3",100,10,"1/3",1000,10,2,TRUE,0,0,0,TRUE,"c(1, 5, 2, 6, 3, 7, 4, 8)",0,"A","stable",0.01,TRUE,0
2,1,"2","2016-04-07 15:03:44.131",1460066624130622720,1460066619164,"state",0,"1",1.5,0,-1,0,"2/3",100,10,"1/3",1000,10,2,TRUE,0,0,0,TRUE,"c(1, 5, 2, 6, 3, 7, 4, 8)",0,"A","stable",0.01,TRUE,0
2,1,"2","2016-04-07 15:03:44.131",1460066624130622720,1460066619164,"state",0,"2",2.5,0,-1,0,"2/3",100,10,"1/3",1000,10,2,TRUE,0,0,0,TRUE,"c(1, 5, 2, 6, 3, 7, 4, 8)",0,"A","stable",0.01,TRUE,0
2,1,"2","2016-04-07 15:03:44.131",1460066624130622720,1460066619164,"state",0,"3",3.5,0,-1,0,"2/3",100,10,"1/3",1000,10,2,TRUE,0,0,0,TRUE,"c(1, 5, 2, 6, 3, 7, 4, 8)",0,"A","stable",0.01,TRUE,0
2,1,"2","2016-04-07 15:03:44.131",1460066624130622720,1460066619164,"state",0,"4",3.5,0,-1,0,"2/3",100,10,"1/3",1000,10,2,TRUE,0,0,0,TRUE,"c(1, 5, 2, 6, 3, 7, 4, 8)",0,"A","stable",0.01,TRUE,0
2,1,"2","2016-04-07 15:03:45.127",1460066625126712064,1460066620160,"state",0,"1",1.5,0,-1,0,"2/3",100,10,"1/3",1000,10,2,TRUE,0,0,0,TRUE,"c(1, 5, 2, 6, 3, 7, 4, 8)",0,"A","stable",0.01,TRUE,0
2,1,"2","2016-04-07 15:03:45.127",1460066625126712064,1460066620160,"state",0,"2",2.5,0,-1,0,"2/3",100,10,"1/3",1000,10,2,TRUE,0,0,0,TRUE,"c(1, 5, 2, 6, 3, 7, 4, 8)",0,"A","stable",0.01,TRUE,0
2,1,"2","2016-04-07 15:03:45.127",1460066625126712064,1460066620160,"state",0,"3",3.5,0,-1,0,"2/3",100,10,"1/3",1000,10,2,TRUE,0,0,0,TRUE,"c(1, 5, 2, 6, 3, 7, 4, 8)",0,"A","stable",0.01,TRUE,0
2,1,"2","2016-04-07 15:03:45.127",1460066625126712064,1460066620160,"state",0,"4",3.5,0,-1,0,"2/3",100,10,"1/3",1000,10,2,TRUE,0,0,0,TRUE,"c(1, 5, 2, 6, 3, 7, 4, 8)",0,"A","stable",0.01,TRUE,0
2,1,"2","2016-04-07 15:03:46.127",1460066626126941952,1460066621160,"state",0,"1",1.5,0,-1,0,"2/3",100,10,"1/3",1000,10,2,TRUE,0,0,0,TRUE,"c(1, 5, 2, 6, 3, 7, 4, 8)",0,"A","stable",0.01,TRUE,0
2,1,"2","2016-04-07 15:03:46.127",1460066626126941952,1460066621160,"state",0,"2",2.5,0,-1,0,"2/3",100,10,"1/3",1000,10,2,TRUE,0,0,0,TRUE,"c(1, 5, 2, 6, 3, 7, 4, 8)",0,"A","stable",0.01,TRUE,0
2,1,"2","2016-04-07 15:03:46.127",1460066626126941952,1460066621160,"state",0,"3",3.5,0,-1,0,"2/3",100,10,"1/3",1000,10,2,TRUE,0,0,0,TRUE,"c(1, 5, 2, 6, 3, 7, 4, 8)",0,"A","stable",0.01,TRUE,0
2,1,"2","2016-04-07 15:03:46.127",1460066626126941952,1460066621160,"state",0,"4",3.5,0,-1,0,"2/3",100,10,"1/3",1000,10,2,TRUE,0,0,0,TRUE,"c(1, 5, 2, 6, 3, 7, 4, 8)",0,"A","stable",0.01,TRUE,0
2,1,"2","2016-04-07 15:03:47.126",1460066627125615616,1460066622158,"state",0,"1",1.5,0,-1,0,"2/3",100,10,"1/3",1000,10,2,TRUE,0,0,0,TRUE,"c(1, 5, 2, 6, 3, 7, 4, 8)",0,"A","stable",0.01,TRUE,0
2,1,"2","2016-04-07 15:03:47.126",1460066627125615616,1460066622158,"state",0,"2",2.5,0,-1,0,"2/3",100,10,"1/3",1000,10,2,TRUE,0,0,0,TRUE,"c(1, 5, 2, 6, 3, 7, 4, 8)",0,"A","stable",0.01,TRUE,0
2,1,"2","2016-04-07 15:03:47.126",1460066627125615616,1460066622158,"state",0,"3",3.5,0,-1,0,"2/3",100,10,"1/3",1000,10,2,TRUE,0,0,0,TRUE,"c(1, 5, 2, 6, 3, 7, 4, 8)",0,"A","stable",0.01,TRUE,0
2,1,"2","2016-04-07 15:03:47.126",1460066627125615616,1460066622158,"state",0,"4",3.5,0,-1,0,"2/3",100,10,"1/3",1000,10,2,TRUE,0,0,0,TRUE,"c(1, 5, 2, 6, 3, 7, 4, 8)",0,"A","stable",0.01,TRUE,0
2,1,"2","2016-04-07 15:03:48.127",1460066628126966784,1460066623160,"state",0,"1",1.5,0,-1,0,"2/3",100,10,"1/3",1000,10,2,TRUE,0,0,0,TRUE,"c(1, 5, 2, 6, 3, 7, 4, 8)",0,"A","stable",0.01,TRUE,0
2,1,"2","2016-04-07 15:03:48.127",1460066628126966784,1460066623160,"state",0,"2",2.5,0,-1,0,"2/3",100,10,"1/3",1000,10,2,TRUE,0,0,0,TRUE,"c(1, 5, 2, 6, 3, 7, 4, 8)",0,"A","stable",0.01,TRUE,0
2,1,"2","2016-04-07 15:03:48.127",1460066628126966784,1460066623160,"state",0,"3",3.5,0,-1,0,"2/3",100,10,"1/3",1000,10,2,TRUE,0,0,0,TRUE,"c(1, 5, 2, 6, 3, 7, 4, 8)",0,"A","stable",0.01,TRUE,0
2,1,"2","2016-04-07 15:03:48.127",1460066628126966784,1460066623160,"state",0,"4",3.5,0,-1,0,"2/3",100,10,"1/3",1000,10,2,TRUE,0,0,0,TRUE,"c(1, 5, 2, 6, 3, 7, 4, 8)",0,"A","stable",0.01,TRUE,0
2,1,"2","2016-04-07 15:03:49.127",1460066629127331584,1460066624162,"state",0,"1",1.5,0,-1,0,"2/3",100,10,"1/3",1000,10,2,TRUE,0,0,0,TRUE,"c(1, 5, 2, 6, 3, 7, 4, 8)",0,"A","stable",0.01,TRUE,0
2,1,"2","2016-04-07 15:03:49.127",1460066629127331584,1460066624162,"state",0,"2",2.5,0,-1,0,"2/3",100,10,"1/3",1000,10,2,TRUE,0,0,0,TRUE,"c(1, 5, 2, 6, 3, 7, 4, 8)",0,"A","stable",0.01,TRUE,0
2,1,"2","2016-04-07 15:03:49.127",1460066629127331584,1460066624162,"state",0,"3",3.5,0,-1,0,"2/3",100,10,"1/3",1000,10,2,TRUE,0,0,0,TRUE,"c(1, 5, 2, 6, 3, 7, 4, 8)",0,"A","stable",0.01,TRUE,0
2,1,"2","2016-04-07 15:03:49.127",1460066629127331584,1460066624162,"state",0,"4",3.5,0,-1,0,"2/3",100,10,"1/3",1000,10,2,TRUE,0,0,0,TRUE,"c(1, 5, 2, 6, 3, 7, 4, 8)",0,"A","stable",0.01,TRUE,0
2,1,"2","2016-04-07 15:03:50.126",1460066630126448128,1460066625160,"state",0,"1",1.5,0,-1,0,"2/3",100,10,"1/3",1000,10,2,TRUE,0,0,0,TRUE,"c(1, 5, 2, 6, 3, 7, 4, 8)",0,"A","stable",0.01,TRUE,0
2,1,"2","2016-04-07 15:03:50.126",1460066630126448128,1460066625160,"state",0,"2",2.5,0,-1,0,"2/3",100,10,"1/3",1000,10,2,TRUE,0,0,0,TRUE,"c(1, 5, 2, 6, 3, 7, 4, 8)",0,"A","stable",0.01,TRUE,0
2,1,"2","2016-04-07 15:03:50.126",1460066630126448128,1460066625160,"state",0,"3",3.5,0,-1,0,"2/3",100,10,"1/3",1000,10,2,TRUE,0,0,0,TRUE,"c(1, 5, 2, 6, 3, 7, 4, 8)",0,"A","stable",0.01,TRUE,0
2,1,"2","2016-04-07 15:03:50.126",1460066630126448128,1460066625160,"state",0,"4",3.5,0,-1,0,"2/3",100,10,"1/3",1000,10,2,TRUE,0,0,0,TRUE,"c(1, 5, 2, 6, 3, 7, 4, 8)",0,"A","stable",0.01,TRUE,0
2,1,"2","2016-04-07 15:03:51.133",1460066631133235200,1460066626166,"state",0,"1",1.5,0,-1,0,"2/3",100,10,"1/3",1000,10,2,TRUE,0,0,0,TRUE,"c(1, 5, 2, 6, 3, 7, 4, 8)",0,"A","stable",0.01,TRUE,0
2,1,"2","2016-04-07 15:03:51.133",1460066631133235200,1460066626166,"state",0,"2",2.5,0,-1,0,"2/3",100,10,"1/3",1000,10,2,TRUE,0,0,0,TRUE,"c(1, 5, 2, 6, 3, 7, 4, 8)",0,"A","stable",0.01,TRUE,0
2,1,"2","2016-04-07 15:03:51.133",1460066631133235200,1460066626166,"state",0,"3",3.5,0,-1,0,"2/3",100,10,"1/3",1000,10,2,TRUE,0,0,0,TRUE,"c(1, 5, 2, 6, 3, 7, 4, 8)",0,"A","stable",0.01,TRUE,0
2,1,"2","2016-04-07 15:03:51.133",1460066631133235200,1460066626166,"state",0,"4",3.5,0,-1,0,"2/3",100,10,"1/3",1000,10,2,TRUE,0,0,0,TRUE,"c(1, 5, 2, 6, 3, 7, 4, 8)",0,"A","stable",0.01,TRUE,0
2,1,"2","2016-04-07 15:03:52.125",1460066632124903680,1460066627161,"state",0,"1",1.5,0,-1,0,"2/3",100,10,"1/3",1000,10,2,TRUE,0,0,0,TRUE,"c(1, 5, 2, 6, 3, 7, 4, 8)",0,"A","stable",0.01,TRUE,0
2,1,"2","2016-04-07 15:03:52.125",1460066632124903680,1460066627161,"state",0,"2",2.5,0,-1,0,"2/3",100,10,"1/3",1000,10,2,TRUE,0,0,0,TRUE,"c(1, 5, 2, 6, 3, 7, 4, 8)",0,"A","stable",0.01,TRUE,0
2,1,"2","2016-04-07 15:03:52.125",1460066632124903680,1460066627161,"state",0,"3",3.5,0,-1,0,"2/3",100,10,"1/3",1000,10,2,TRUE,0,0,0,TRUE,"c(1, 5, 2, 6, 3, 7, 4, 8)",0,"A","stable",0.01,TRUE,0
2,1,"2","2016-04-07 15:03:52.125",1460066632124903680,1460066627161,"state",0,"4",3.5,0,-1,0,"2/3",100,10,"1/3",1000,10,2,TRUE,0,0,0,TRUE,"c(1, 5, 2, 6, 3, 7, 4, 8)",0,"A","stable",0.01,TRUE,0
2,1,"2","2016-04-07 15:03:53.129",1460066633129080832,1460066628161,"state",0,"1",1.5,0,-1,0,"2/3",100,10,"1/3",1000,10,2,TRUE,0,0,0,TRUE,"c(1, 5, 2, 6, 3, 7, 4, 8)",0,"A","stable",0.01,TRUE,0
2,1,"2","2016-04-07 15:03:53.129",1460066633129080832,1460066628161,"state",0,"2",2.5,0,-1,0,"2/3",100,10,"1/3",1000,10,2,TRUE,0,0,0,TRUE,"c(1, 5, 2, 6, 3, 7, 4, 8)",0,"A","stable",0.01,TRUE,0
2,1,"2","2016-04-07 15:03:53.129",1460066633129080832,1460066628161,"state",0,"3",3.5,0,-1,0,"2/3",100,10,"1/3",1000,10,2,TRUE,0,0,0,TRUE,"c(1, 5, 2, 6, 3, 7, 4, 8)",0,"A","stable",0.01,TRUE,0
2,1,"2","2016-04-07 15:03:53.129",1460066633129080832,1460066628161,"state",0,"4",3.5,0,-1,0,"2/3",100,10,"1/3",1000,10,2,TRUE,0,0,0,TRUE,"c(1, 5, 2, 6, 3, 7, 4, 8)",0,"A","stable",0.01,TRUE,0
2,1,"2","2016-04-07 15:03:54.122",1460066634122181888,1460066629159,"state",0,"1",1.5,0,-1,0,"2/3",100,10,"1/3",1000,10,2,TRUE,0,0,0,TRUE,"c(1, 5, 2, 6, 3, 7, 4, 8)",0,"A","stable",0.01,TRUE,0
2,1,"2","2016-04-07 15:03:54.122",1460066634122181888,1460066629159,"state",0,"2",2.5,0,-1,0,"2/3",100,10,"1/3",1000,10,2,TRUE,0,0,0,TRUE,"c(1, 5, 2, 6, 3, 7, 4, 8)",0,"A","stable",0.01,TRUE,0
2,1,"2","2016-04-07 15:03:54.122",1460066634122181888,1460066629159,"state",0,"3",3.5,0,-1,0,"2/3",100,10,"1/3",1000,10,2,TRUE,0,0,0,TRUE,"c(1, 5, 2, 6, 3, 7, 4, 8)",0,"A","stable",0.01,TRUE,0
2,1,"2","2016-04-07 15:03:54.122",1460066634122181888,1460066629159,"state",0,"4",3.5,0,-1,0,"2/3",100,10,"1/3",1000,10,2,TRUE,0,0,0,TRUE,"c(1, 5, 2, 6, 3, 7, 4, 8)",0,"A","stable",0.01,TRUE,0
2,1,"2","2016-04-07 15:03:55.125",1460066635124701440,1460066630158,"state",0,"1",1.5,0,-1,0,"2/3",100,10,"1/3",1000,10,2,TRUE,0,0,0,TRUE,"c(1, 5, 2, 6, 3, 7, 4, 8)",0,"A","stable",0.01,TRUE,0
2,1,"2","2016-04-07 15:03:55.125",1460066635124701440,1460066630158,"state",0,"2",2.5,0,-1,0,"2/3",100,10,"1/3",1000,10,2,TRUE,0,0,0,TRUE,"c(1, 5, 2, 6, 3, 7, 4, 8)",0,"A","stable",0.01,TRUE,0
2,1,"2","2016-04-07 15:03:55.125",1460066635124701440,1460066630158,"state",0,"3",3.5,0,-1,0,"2/3",100,10,"1/3",1000,10,2,TRUE,0,0,0,TRUE,"c(1, 5, 2, 6, 3, 7, 4, 8)",0,"A","stable",0.01,TRUE,0
2,1,"2","2016-04-07 15:03:55.125",1460066635124701440,1460066630158,"state",0,"4",3.5,0,-1,0,"2/3",100,10,"1/3",1000,10,2,TRUE,0,0,0,TRUE,"c(1, 5, 2, 6, 3, 7, 4, 8)",0,"A","stable",0.01,TRUE,0
2,1,"2","2016-04-07 15:03:56.129",1460066636128783616,1460066631162,"state",0,"1",1.5,0,-1,0,"2/3",100,10,"1/3",1000,10,2,TRUE,0,0,0,TRUE,"c(1, 5, 2, 6, 3, 7, 4, 8)",0,"A","stable",0.01,TRUE,0
2,1,"2","2016-04-07 15:03:56.129",1460066636128783616,1460066631162,"state",0,"2",2.5,0,-1,0,"2/3",100,10,"1/3",1000,10,2,TRUE,0,0,0,TRUE,"c(1, 5, 2, 6, 3, 7, 4, 8)",0,"A","stable",0.01,TRUE,0
2,1,"2","2016-04-07 15:03:56.129",1460066636128783616,1460066631162,"state",0,"3",3.5,0,-1,0,"2/3",100,10,"1/3",1000,10,2,TRUE,0,0,0,TRUE,"c(1, 5, 2, 6, 3, 7, 4, 8)",0,"A","stable",0.01,TRUE,0
2,1,"2","2016-04-07 15:03:56.129",1460066636128783616,1460066631162,"state",0,"4",3.5,0,-1,0,"2/3",100,10,"1/3",1000,10,2,TRUE,0,0,0,TRUE,"c(1, 5, 2, 6, 3, 7, 4, 8)",0,"A","stable",0.01,TRUE,0
2,1,"2","2016-04-07 15:03:57.131",1460066637131384576,1460066632165,"state",0,"1",1.5,0,-1,0,"2/3",100,10,"1/3",1000,10,2,TRUE,0,0,0,TRUE,"c(1, 5, 2, 6, 3, 7, 4, 8)",0,"A","stable",0.01,TRUE,0
2,1,"2","2016-04-07 15:03:57.131",1460066637131384576,1460066632165,"state",0,"2",2.5,0,-1,0,"2/3",100,10,"1/3",1000,10,2,TRUE,0,0,0,TRUE,"c(1, 5, 2, 6, 3, 7, 4, 8)",0,"A","stable",0.01,TRUE,0
2,1,"2","2016-04-07 15:03:57.131",1460066637131384576,1460066632165,"state",0,"3",3.5,0,-1,0,"2/3",100,10,"1/3",1000,10,2,TRUE,0,0,0,TRUE,"c(1, 5, 2, 6, 3, 7, 4, 8)",0,"A","stable",0.01,TRUE,0
2,1,"2","2016-04-07 15:03:57.131",1460066637131384576,1460066632165,"state",0,"4",3.5,0,-1,0,"2/3",100,10,"1/3",1000,10,2,TRUE,0,0,0,TRUE,"c(1, 5, 2, 6, 3, 7, 4, 8)",0,"A","stable",0.01,TRUE,0
2,1,"2","2016-04-07 15:03:58.128",1460066638127524352,1460066633163,"state",0,"1",1.5,0,-1,0,"2/3",100,10,"1/3",1000,10,2,TRUE,0,0,0,TRUE,"c(1, 5, 2, 6, 3, 7, 4, 8)",0,"A","stable",0.01,TRUE,0
2,1,"2","2016-04-07 15:03:58.128",1460066638127524352,1460066633163,"state",0,"2",2.5,0,-1,0,"2/3",100,10,"1/3",1000,10,2,TRUE,0,0,0,TRUE,"c(1, 5, 2, 6, 3, 7, 4, 8)",0,"A","stable",0.01,TRUE,0
2,1,"2","2016-04-07 15:03:58.128",1460066638127524352,1460066633163,"state",0,"3",3.5,0,-1,0,"2/3",100,10,"1/3",1000,10,2,TRUE,0,0,0,TRUE,"c(1, 5, 2, 6, 3, 7, 4, 8)",0,"A","stable",0.01,TRUE,0
2,1,"2","2016-04-07 15:03:58.128",1460066638127524352,1460066633163,"state",0,"4",3.5,0,-1,0,"2/3",100,10,"1/3",1000,10,2,TRUE,0,0,0,TRUE,"c(1, 5, 2, 6, 3, 7, 4, 8)",0,"A","stable",0.01,TRUE,0
2,1,"2","2016-04-07 15:03:59.126",1460066639125641984,1460066634163,"state",0,"1",1.5,0,-1,0,"2/3",100,10,"1/3",1000,10,2,TRUE,0,0,0,TRUE,"c(1, 5, 2, 6, 3, 7, 4, 8)",0,"A","stable",0.01,TRUE,0
2,1,"2","2016-04-07 15:03:59.126",1460066639125641984,1460066634163,"state",0,"2",2.5,0,-1,0,"2/3",100,10,"1/3",1000,10,2,TRUE,0,0,0,TRUE,"c(1, 5, 2, 6, 3, 7, 4, 8)",0,"A","stable",0.01,TRUE,0
2,1,"2","2016-04-07 15:03:59.126",1460066639125641984,1460066634163,"state",0,"3",3.5,0,-1,0,"2/3",100,10,"1/3",1000,10,2,TRUE,0,0,0,TRUE,"c(1, 5, 2, 6, 3, 7, 4, 8)",0,"A","stable",0.01,TRUE,0
2,1,"2","2016-04-07 15:03:59.126",1460066639125641984,1460066634163,"state",0,"4",3.5,0,-1,0,"2/3",100,10,"1/3",1000,10,2,TRUE,0,0,0,TRUE,"c(1, 5, 2, 6, 3, 7, 4, 8)",0,"A","stable",0.01,TRUE,0
2,1,"2","2016-04-07 15:04:00.130",1460066640130035456,1460066635165,"state",0,"1",1.5,0,-1,0,"2/3",100,10,"1/3",1000,10,2,TRUE,0,0,0,TRUE,"c(1, 5, 2, 6, 3, 7, 4, 8)",0,"A","stable",0.01,TRUE,0
2,1,"2","2016-04-07 15:04:00.130",1460066640130035456,1460066635165,"state",0,"2",2.5,0,-1,0,"2/3",100,10,"1/3",1000,10,2,TRUE,0,0,0,TRUE,"c(1, 5, 2, 6, 3, 7, 4, 8)",0,"A","stable",0.01,TRUE,0
2,1,"2","2016-04-07 15:04:00.130",1460066640130035456,1460066635165,"state",0,"3",3.5,0,-1,0,"2/3",100,10,"1/3",1000,10,2,TRUE,0,0,0,TRUE,"c(1, 5, 2, 6, 3, 7, 4, 8)",0,"A","stable",0.01,TRUE,0
2,1,"2","2016-04-07 15:04:00.130",1460066640130035456,1460066635165,"state",0,"4",3.5,0,-1,0,"2/3",100,10,"1/3",1000,10,2,TRUE,0,0,0,TRUE,"c(1, 5, 2, 6, 3, 7, 4, 8)",0,"A","stable",0.01,TRUE,0
2,1,"2","2016-04-07 15:04:01.128",1460066641128415232,1460066636161,"state",0,"1",1.5,0,-1,0,"2/3",100,10,"1/3",1000,10,2,TRUE,0,0,0,TRUE,"c(1, 5, 2, 6, 3, 7, 4, 8)",0,"A","stable",0.01,TRUE,0
2,1,"2","2016-04-07 15:04:01.128",1460066641128415232,1460066636161,"state",0,"2",2.5,0,-1,0,"2/3",100,10,"1/3",1000,10,2,TRUE,0,0,0,TRUE,"c(1, 5, 2, 6, 3, 7, 4, 8)",0,"A","stable",0.01,TRUE,0
2,1,"2","2016-04-07 15:04:01.128",1460066641128415232,1460066636161,"state",0,"3",3.5,0,-1,0,"2/3",100,10,"1/3",1000,10,2,TRUE,0,0,0,TRUE,"c(1, 5, 2, 6, 3, 7, 4, 8)",0,"A","stable",0.01,TRUE,0
2,1,"2","2016-04-07 15:04:01.128",1460066641128415232,1460066636161,"state",0,"4",3.5,0,-1,0,"2/3",100,10,"1/3",1000,10,2,TRUE,0,0,0,TRUE,"c(1, 5, 2, 6, 3, 7, 4, 8)",0,"A","stable",0.01,TRUE,0
2,1,"2","2016-04-07 15:04:02.130",1460066642130252544,1460066637165,"state",0,"1",1.5,0,-1,0,"2/3",100,10,"1/3",1000,10,2,TRUE,0,0,0,TRUE,"c(1, 5, 2, 6, 3, 7, 4, 8)",0,"A","stable",0.01,TRUE,0
2,1,"2","2016-04-07 15:04:02.130",1460066642130252544,1460066637165,"state",0,"2",2.5,0,-1,0,"2/3",100,10,"1/3",1000,10,2,TRUE,0,0,0,TRUE,"c(1, 5, 2, 6, 3, 7, 4, 8)",0,"A","stable",0.01,TRUE,0
2,1,"2","2016-04-07 15:04:02.130",1460066642130252544,1460066637165,"state",0,"3",3.5,0,-1,0,"2/3",100,10,"1/3",1000,10,2,TRUE,0,0,0,TRUE,"c(1, 5, 2, 6, 3, 7, 4, 8)",0,"A","stable",0.01,TRUE,0
2,1,"2","2016-04-07 15:04:02.130",1460066642130252544,1460066637165,"state",0,"4",3.5,0,-1,0,"2/3",100,10,"1/3",1000,10,2,TRUE,0,0,0,TRUE,"c(1, 5, 2, 6, 3, 7, 4, 8)",0,"A","stable",0.01,TRUE,0
2,1,"2","2016-04-07 15:04:03.126",1460066643126454016,1460066638162,"state",0,"1",1.5,0,-1,0,"2/3",100,10,"1/3",1000,10,2,TRUE,0,0,0,TRUE,"c(1, 5, 2, 6, 3, 7, 4, 8)",0,"A","stable",0.01,TRUE,0
2,1,"2","2016-04-07 15:04:03.126",1460066643126454016,1460066638162,"state",0,"2",2.5,0,-1,0,"2/3",100,10,"1/3",1000,10,2,TRUE,0,0,0,TRUE,"c(1, 5, 2, 6, 3, 7, 4, 8)",0,"A","stable",0.01,TRUE,0
2,1,"2","2016-04-07 15:04:03.126",1460066643126454016,1460066638162,"state",0,"3",3.5,0,-1,0,"2/3",100,10,"1/3",1000,10,2,TRUE,0,0,0,TRUE,"c(1, 5, 2, 6, 3, 7, 4, 8)",0,"A","stable",0.01,TRUE,0
2,1,"2","2016-04-07 15:04:03.126",1460066643126454016,1460066638162,"state",0,"4",3.5,0,-1,0,"2/3",100,10,"1/3",1000,10,2,TRUE,0,0,0,TRUE,"c(1, 5, 2, 6, 3, 7, 4, 8)",0,"A","stable",0.01,TRUE,0
2,1,"2","2016-04-07 15:04:04.129",1460066644128969216,1460066639162,"state",0,"1",1.5,0,-1,0,"2/3",100,10,"1/3",1000,10,2,TRUE,0,0,0,TRUE,"c(1, 5, 2, 6, 3, 7, 4, 8)",0,"A","stable",0.01,TRUE,0
2,1,"2","2016-04-07 15:04:04.129",1460066644128969216,1460066639162,"state",0,"2",2.5,0,-1,0,"2/3",100,10,"1/3",1000,10,2,TRUE,0,0,0,TRUE,"c(1, 5, 2, 6, 3, 7, 4, 8)",0,"A","stable",0.01,TRUE,0
2,1,"2","2016-04-07 15:04:04.129",1460066644128969216,1460066639162,"state",0,"3",3.5,0,-1,0,"2/3",100,10,"1/3",1000,10,2,TRUE,0,0,0,TRUE,"c(1, 5, 2, 6, 3, 7, 4, 8)",0,"A","stable",0.01,TRUE,0
2,1,"2","2016-04-07 15:04:04.129",1460066644128969216,1460066639162,"state",0,"4",3.5,0,-1,0,"2/3",100,10,"1/3",1000,10,2,TRUE,0,0,0,TRUE,"c(1, 5, 2, 6, 3, 7, 4, 8)",0,"A","stable",0.01,TRUE,0
2,1,"2","2016-04-07 15:04:05.126",1460066645125601536,1460066640159,"state",0,"1",1.5,0,-1,0,"2/3",100,10,"1/3",1000,10,2,TRUE,0,0,0,TRUE,"c(1, 5, 2, 6, 3, 7, 4, 8)",0,"A","stable",0.01,TRUE,0
2,1,"2","2016-04-07 15:04:05.126",1460066645125601536,1460066640159,"state",0,"2",2.5,0,-1,0,"2/3",100,10,"1/3",1000,10,2,TRUE,0,0,0,TRUE,"c(1, 5, 2, 6, 3, 7, 4, 8)",0,"A","stable",0.01,TRUE,0
2,1,"2","2016-04-07 15:04:05.126",1460066645125601536,1460066640159,"state",0,"3",3.5,0,-1,0,"2/3",100,10,"1/3",1000,10,2,TRUE,0,0,0,TRUE,"c(1, 5, 2, 6, 3, 7, 4, 8)",0,"A","stable",0.01,TRUE,0
2,1,"2","2016-04-07 15:04:05.126",1460066645125601536,1460066640159,"state",0,"4",3.5,0,-1,0,"2/3",100,10,"1/3",1000,10,2,TRUE,0,0,0,TRUE,"c(1, 5, 2, 6, 3, 7, 4, 8)",0,"A","stable",0.01,TRUE,0
2,1,"2","2016-04-07 15:04:06.127",1460066646126668800,1460066641159,"state",0,"1",1.5,0,-1,0,"2/3",100,10,"1/3",1000,10,2,TRUE,0,0,0,TRUE,"c(1, 5, 2, 6, 3, 7, 4, 8)",0,"A","stable",0.01,TRUE,0
2,1,"2","2016-04-07 15:04:06.127",1460066646126668800,1460066641159,"state",0,"2",2.5,0,-1,0,"2/3",100,10,"1/3",1000,10,2,TRUE,0,0,0,TRUE,"c(1, 5, 2, 6, 3, 7, 4, 8)",0,"A","stable",0.01,TRUE,0
2,1,"2","2016-04-07 15:04:06.127",1460066646126668800,1460066641159,"state",0,"3",3.5,0,-1,0,"2/3",100,10,"1/3",1000,10,2,TRUE,0,0,0,TRUE,"c(1, 5, 2, 6, 3, 7, 4, 8)",0,"A","stable",0.01,TRUE,0
2,1,"2","2016-04-07 15:04:06.127",1460066646126668800,1460066641159,"state",0,"4",3.5,0,-1,0,"2/3",100,10,"1/3",1000,10,2,TRUE,0,0,0,TRUE,"c(1, 5, 2, 6, 3, 7, 4, 8)",0,"A","stable",0.01,TRUE,0
2,1,"2","2016-04-07 15:04:07.127",1460066647127131392,1460066642163,"state",0,"1",1.5,0,-1,0,"2/3",100,10,"1/3",1000,10,2,TRUE,0,0,0,TRUE,"c(1, 5, 2, 6, 3, 7, 4, 8)",0,"A","stable",0.01,TRUE,0
2,1,"2","2016-04-07 15:04:07.127",1460066647127131392,1460066642163,"state",0,"2",2.5,0,-1,0,"2/3",100,10,"1/3",1000,10,2,TRUE,0,0,0,TRUE,"c(1, 5, 2, 6, 3, 7, 4, 8)",0,"A","stable",0.01,TRUE,0
2,1,"2","2016-04-07 15:04:07.127",1460066647127131392,1460066642163,"state",0,"3",3.5,0,-1,0,"2/3",100,10,"1/3",1000,10,2,TRUE,0,0,0,TRUE,"c(1, 5, 2, 6, 3, 7, 4, 8)",0,"A","stable",0.01,TRUE,0
2,1,"2","2016-04-07 15:04:07.127",1460066647127131392,1460066642163,"state",0,"4",3.5,0,-1,0,"2/3",100,10,"1/3",1000,10,2,TRUE,0,0,0,TRUE,"c(1, 5, 2, 6, 3, 7, 4, 8)",0,"A","stable",0.01,TRUE,0
2,1,"2","2016-04-07 15:04:08.132",1460066648132543744,1460066643166,"state",0,"1",1.5,0,-1,0,"2/3",100,10,"1/3",1000,10,2,TRUE,0,0,0,TRUE,"c(1, 5, 2, 6, 3, 7, 4, 8)",0,"A","stable",0.01,TRUE,0
2,1,"2","2016-04-07 15:04:08.132",1460066648132543744,1460066643166,"state",0,"2",2.5,0,-1,0,"2/3",100,10,"1/3",1000,10,2,TRUE,0,0,0,TRUE,"c(1, 5, 2, 6, 3, 7, 4, 8)",0,"A","stable",0.01,TRUE,0
2,1,"2","2016-04-07 15:04:08.132",1460066648132543744,1460066643166,"state",0,"3",3.5,0,-1,0,"2/3",100,10,"1/3",1000,10,2,TRUE,0,0,0,TRUE,"c(1, 5, 2, 6, 3, 7, 4, 8)",0,"A","stable",0.01,TRUE,0
2,1,"2","2016-04-07 15:04:08.132",1460066648132543744,1460066643166,"state",0,"4",3.5,0,-1,0,"2/3",100,10,"1/3",1000,10,2,TRUE,0,0,0,TRUE,"c(1, 5, 2, 6, 3, 7, 4, 8)",0,"A","stable",0.01,TRUE,0
2,1,"2","2016-04-07 15:04:09.127",1460066649126993408,1460066644162,"state",0,"1",1.5,0,-1,0,"2/3",100,10,"1/3",1000,10,2,TRUE,0,0,0,TRUE,"c(1, 5, 2, 6, 3, 7, 4, 8)",0,"A","stable",0.01,TRUE,0
2,1,"2","2016-04-07 15:04:09.127",1460066649126993408,1460066644162,"state",0,"2",2.5,0,-1,0,"2/3",100,10,"1/3",1000,10,2,TRUE,0,0,0,TRUE,"c(1, 5, 2, 6, 3, 7, 4, 8)",0,"A","stable",0.01,TRUE,0
2,1,"2","2016-04-07 15:04:09.127",1460066649126993408,1460066644162,"state",0,"3",3.5,0,-1,0,"2/3",100,10,"1/3",1000,10,2,TRUE,0,0,0,TRUE,"c(1, 5, 2, 6, 3, 7, 4, 8)",0,"A","stable",0.01,TRUE,0
2,1,"2","2016-04-07 15:04:09.127",1460066649126993408,1460066644162,"state",0,"4",3.5,0,-1,0,"2/3",100,10,"1/3",1000,10,2,TRUE,0,0,0,TRUE,"c(1, 5, 2, 6, 3, 7, 4, 8)",0,"A","stable",0.01,TRUE,0
2,1,"2","2016-04-07 15:04:10.125",1460066650124732160,1460066645159,"state",0,"1",1.5,0,-1,0,"2/3",100,10,"1/3",1000,10,2,TRUE,0,0,0,TRUE,"c(1, 5, 2, 6, 3, 7, 4, 8)",0,"A","stable",0.01,TRUE,0
2,1,"2","2016-04-07 15:04:10.125",1460066650124732160,1460066645159,"state",0,"2",2.5,0,-1,0,"2/3",100,10,"1/3",1000,10,2,TRUE,0,0,0,TRUE,"c(1, 5, 2, 6, 3, 7, 4, 8)",0,"A","stable",0.01,TRUE,0
2,1,"2","2016-04-07 15:04:10.125",1460066650124732160,1460066645159,"state",0,"3",3.5,0,-1,0,"2/3",100,10,"1/3",1000,10,2,TRUE,0,0,0,TRUE,"c(1, 5, 2, 6, 3, 7, 4, 8)",0,"A","stable",0.01,TRUE,0
2,1,"2","2016-04-07 15:04:10.125",1460066650124732160,1460066645159,"state",0,"4",3.5,0,-1,0,"2/3",100,10,"1/3",1000,10,2,TRUE,0,0,0,TRUE,"c(1, 5, 2, 6, 3, 7, 4, 8)",0,"A","stable",0.01,TRUE,0
2,1,"2","2016-04-07 15:04:11.125",1460066651125459456,1460066646160,"state",0,"1",1.5,0,-1,0,"2/3",100,10,"1/3",1000,10,2,TRUE,0,0,0,TRUE,"c(1, 5, 2, 6, 3, 7, 4, 8)",0,"A","stable",0.01,TRUE,0
2,1,"2","2016-04-07 15:04:11.125",1460066651125459456,1460066646160,"state",0,"2",2.5,0,-1,0,"2/3",100,10,"1/3",1000,10,2,TRUE,0,0,0,TRUE,"c(1, 5, 2, 6, 3, 7, 4, 8)",0,"A","stable",0.01,TRUE,0
2,1,"2","2016-04-07 15:04:11.125",1460066651125459456,1460066646160,"state",0,"3",3.5,0,-1,0,"2/3",100,10,"1/3",1000,10,2,TRUE,0,0,0,TRUE,"c(1, 5, 2, 6, 3, 7, 4, 8)",0,"A","stable",0.01,TRUE,0
2,1,"2","2016-04-07 15:04:11.125",1460066651125459456,1460066646160,"state",0,"4",3.5,0,-1,0,"2/3",100,10,"1/3",1000,10,2,TRUE,0,0,0,TRUE,"c(1, 5, 2, 6, 3, 7, 4, 8)",0,"A","stable",0.01,TRUE,0
2,1,"2","2016-04-07 15:04:12.126",1460066652126281216,1460066647160,"state",0,"1",1.5,0,-1,0,"2/3",100,10,"1/3",1000,10,2,TRUE,0,0,0,TRUE,"c(1, 5, 2, 6, 3, 7, 4, 8)",0,"A","stable",0.01,TRUE,0
2,1,"2","2016-04-07 15:04:12.126",1460066652126281216,1460066647160,"state",0,"2",2.5,0,-1,0,"2/3",100,10,"1/3",1000,10,2,TRUE,0,0,0,TRUE,"c(1, 5, 2, 6, 3, 7, 4, 8)",0,"A","stable",0.01,TRUE,0
2,1,"2","2016-04-07 15:04:12.126",1460066652126281216,1460066647160,"state",0,"3",3.5,0,-1,0,"2/3",100,10,"1/3",1000,10,2,TRUE,0,0,0,TRUE,"c(1, 5, 2, 6, 3, 7, 4, 8)",0,"A","stable",0.01,TRUE,0
2,1,"2","2016-04-07 15:04:12.126",1460066652126281216,1460066647160,"state",0,"4",3.5,0,-1,0,"2/3",100,10,"1/3",1000,10,2,TRUE,0,0,0,TRUE,"c(1, 5, 2, 6, 3, 7, 4, 8)",0,"A","stable",0.01,TRUE,0
2,1,"2","2016-04-07 15:04:13.125",1460066653125259520,1460066648160,"state",0,"1",1.5,0,-1,0,"2/3",100,10,"1/3",1000,10,2,TRUE,0,0,0,TRUE,"c(1, 5, 2, 6, 3, 7, 4, 8)",0,"A","stable",0.01,TRUE,0
2,1,"2","2016-04-07 15:04:13.125",1460066653125259520,1460066648160,"state",0,"2",2.5,0,-1,0,"2/3",100,10,"1/3",1000,10,2,TRUE,0,0,0,TRUE,"c(1, 5, 2, 6, 3, 7, 4, 8)",0,"A","stable",0.01,TRUE,0
2,1,"2","2016-04-07 15:04:13.125",1460066653125259520,1460066648160,"state",0,"3",3.5,0,-1,0,"2/3",100,10,"1/3",1000,10,2,TRUE,0,0,0,TRUE,"c(1, 5, 2, 6, 3, 7, 4, 8)",0,"A","stable",0.01,TRUE,0
2,1,"2","2016-04-07 15:04:13.125",1460066653125259520,1460066648160,"state",0,"4",3.5,0,-1,0,"2/3",100,10,"1/3",1000,10,2,TRUE,0,0,0,TRUE,"c(1, 5, 2, 6, 3, 7, 4, 8)",0,"A","stable",0.01,TRUE,0
2,1,"2","2016-04-07 15:04:14.128",1460066654128080640,1460066649160,"state",0,"1",1.5,0,-1,0,"2/3",100,10,"1/3",1000,10,2,TRUE,0,0,0,TRUE,"c(1, 5, 2, 6, 3, 7, 4, 8)",0,"A","stable",0.01,TRUE,0
2,1,"2","2016-04-07 15:04:14.128",1460066654128080640,1460066649160,"state",0,"2",2.5,0,-1,0,"2/3",100,10,"1/3",1000,10,2,TRUE,0,0,0,TRUE,"c(1, 5, 2, 6, 3, 7, 4, 8)",0,"A","stable",0.01,TRUE,0
2,1,"2","2016-04-07 15:04:14.128",1460066654128080640,1460066649160,"state",0,"3",3.5,0,-1,0,"2/3",100,10,"1/3",1000,10,2,TRUE,0,0,0,TRUE,"c(1, 5, 2, 6, 3, 7, 4, 8)",0,"A","stable",0.01,TRUE,0
2,1,"2","2016-04-07 15:04:14.128",1460066654128080640,1460066649160,"state",0,"4",3.5,0,-1,0,"2/3",100,10,"1/3",1000,10,2,TRUE,0,0,0,TRUE,"c(1, 5, 2, 6, 3, 7, 4, 8)",0,"A","stable",0.01,TRUE,0
2,1,"2","2016-04-07 15:04:15.130",1460066655129941504,1460066650164,"state",0,"1",1.5,0,-1,0,"2/3",100,10,"1/3",1000,10,2,TRUE,0,0,0,TRUE,"c(1, 5, 2, 6, 3, 7, 4, 8)",0,"A","stable",0.01,TRUE,0
2,1,"2","2016-04-07 15:04:15.130",1460066655129941504,1460066650164,"state",0,"2",2.5,0,-1,0,"2/3",100,10,"1/3",1000,10,2,TRUE,0,0,0,TRUE,"c(1, 5, 2, 6, 3, 7, 4, 8)",0,"A","stable",0.01,TRUE,0
2,1,"2","2016-04-07 15:04:15.130",1460066655129941504,1460066650164,"state",0,"3",3.5,0,-1,0,"2/3",100,10,"1/3",1000,10,2,TRUE,0,0,0,TRUE,"c(1, 5, 2, 6, 3, 7, 4, 8)",0,"A","stable",0.01,TRUE,0
2,1,"2","2016-04-07 15:04:15.130",1460066655129941504,1460066650164,"state",0,"4",3.5,0,-1,0,"2/3",100,10,"1/3",1000,10,2,TRUE,0,0,0,TRUE,"c(1, 5, 2, 6, 3, 7, 4, 8)",0,"A","stable",0.01,TRUE,0
2,1,"2","2016-04-07 15:04:16.125",1460066656124675840,1460066651159,"state",0,"1",1.5,0,-1,0,"2/3",100,10,"1/3",1000,10,2,TRUE,0,0,0,TRUE,"c(1, 5, 2, 6, 3, 7, 4, 8)",0,"A","stable",0.01,TRUE,0
2,1,"2","2016-04-07 15:04:16.125",1460066656124675840,1460066651159,"state",0,"2",2.5,0,-1,0,"2/3",100,10,"1/3",1000,10,2,TRUE,0,0,0,TRUE,"c(1, 5, 2, 6, 3, 7, 4, 8)",0,"A","stable",0.01,TRUE,0
2,1,"2","2016-04-07 15:04:16.125",1460066656124675840,1460066651159,"state",0,"3",3.5,0,-1,0,"2/3",100,10,"1/3",1000,10,2,TRUE,0,0,0,TRUE,"c(1, 5, 2, 6, 3, 7, 4, 8)",0,"A","stable",0.01,TRUE,0
2,1,"2","2016-04-07 15:04:16.125",1460066656124675840,1460066651159,"state",0,"4",3.5,0,-1,0,"2/3",100,10,"1/3",1000,10,2,TRUE,0,0,0,TRUE,"c(1, 5, 2, 6, 3, 7, 4, 8)",0,"A","stable",0.01,TRUE,0
2,1,"2","2016-04-07 15:04:17.129",1460066657128521728,1460066652160,"state",0,"1",1.5,0,-1,0,"2/3",100,10,"1/3",1000,10,2,TRUE,0,0,0,TRUE,"c(1, 5, 2, 6, 3, 7, 4, 8)",0,"A","stable",0.01,TRUE,0
2,1,"2","2016-04-07 15:04:17.129",1460066657128521728,1460066652160,"state",0,"2",2.5,0,-1,0,"2/3",100,10,"1/3",1000,10,2,TRUE,0,0,0,TRUE,"c(1, 5, 2, 6, 3, 7, 4, 8)",0,"A","stable",0.01,TRUE,0
2,1,"2","2016-04-07 15:04:17.129",1460066657128521728,1460066652160,"state",0,"3",3.5,0,-1,0,"2/3",100,10,"1/3",1000,10,2,TRUE,0,0,0,TRUE,"c(1, 5, 2, 6, 3, 7, 4, 8)",0,"A","stable",0.01,TRUE,0
2,1,"2","2016-04-07 15:04:17.129",1460066657128521728,1460066652160,"state",0,"4",3.5,0,-1,0,"2/3",100,10,"1/3",1000,10,2,TRUE,0,0,0,TRUE,"c(1, 5, 2, 6, 3, 7, 4, 8)",0,"A","stable",0.01,TRUE,0
2,1,"2","2016-04-07 15:04:18.132",1460066658131549184,1460066653165,"state",0,"1",1.5,0,-1,0,"2/3",100,10,"1/3",1000,10,2,TRUE,0,0,0,TRUE,"c(1, 5, 2, 6, 3, 7, 4, 8)",0,"A","stable",0.01,TRUE,0
2,1,"2","2016-04-07 15:04:18.132",1460066658131549184,1460066653165,"state",0,"2",2.5,0,-1,0,"2/3",100,10,"1/3",1000,10,2,TRUE,0,0,0,TRUE,"c(1, 5, 2, 6, 3, 7, 4, 8)",0,"A","stable",0.01,TRUE,0
2,1,"2","2016-04-07 15:04:18.132",1460066658131549184,1460066653165,"state",0,"3",3.5,0,-1,0,"2/3",100,10,"1/3",1000,10,2,TRUE,0,0,0,TRUE,"c(1, 5, 2, 6, 3, 7, 4, 8)",0,"A","stable",0.01,TRUE,0
2,1,"2","2016-04-07 15:04:18.132",1460066658131549184,1460066653165,"state",0,"4",3.5,0,-1,0,"2/3",100,10,"1/3",1000,10,2,TRUE,0,0,0,TRUE,"c(1, 5, 2, 6, 3, 7, 4, 8)",0,"A","stable",0.01,TRUE,0
2,1,"2","2016-04-07 15:04:19.129",1460066659128940800,1460066654159,"state",0,"1",1.5,0,-1,0,"2/3",100,10,"1/3",1000,10,2,TRUE,0,0,0,TRUE,"c(1, 5, 2, 6, 3, 7, 4, 8)",0,"A","stable",0.01,TRUE,0
2,1,"2","2016-04-07 15:04:19.129",1460066659128940800,1460066654159,"state",0,"2",2.5,0,-1,0,"2/3",100,10,"1/3",1000,10,2,TRUE,0,0,0,TRUE,"c(1, 5, 2, 6, 3, 7, 4, 8)",0,"A","stable",0.01,TRUE,0
2,1,"2","2016-04-07 15:04:19.129",1460066659128940800,1460066654159,"state",0,"3",3.5,0,-1,0,"2/3",100,10,"1/3",1000,10,2,TRUE,0,0,0,TRUE,"c(1, 5, 2, 6, 3, 7, 4, 8)",0,"A","stable",0.01,TRUE,0
2,1,"2","2016-04-07 15:04:19.129",1460066659128940800,1460066654159,"state",0,"4",3.5,0,-1,0,"2/3",100,10,"1/3",1000,10,2,TRUE,0,0,0,TRUE,"c(1, 5, 2, 6, 3, 7, 4, 8)",0,"A","stable",0.01,TRUE,0
2,1,"2","2016-04-07 15:04:20.126",1460066660125513728,1460066655158,"state",0,"1",1.5,0,-1,0,"2/3",100,10,"1/3",1000,10,2,TRUE,0,0,0,TRUE,"c(1, 5, 2, 6, 3, 7, 4, 8)",0,"A","stable",0.01,TRUE,0
2,1,"2","2016-04-07 15:04:20.126",1460066660125513728,1460066655158,"state",0,"2",2.5,0,-1,0,"2/3",100,10,"1/3",1000,10,2,TRUE,0,0,0,TRUE,"c(1, 5, 2, 6, 3, 7, 4, 8)",0,"A","stable",0.01,TRUE,0
2,1,"2","2016-04-07 15:04:20.126",1460066660125513728,1460066655158,"state",0,"3",3.5,0,-1,0,"2/3",100,10,"1/3",1000,10,2,TRUE,0,0,0,TRUE,"c(1, 5, 2, 6, 3, 7, 4, 8)",0,"A","stable",0.01,TRUE,0
2,1,"2","2016-04-07 15:04:20.126",1460066660125513728,1460066655158,"state",0,"4",3.5,0,-1,0,"2/3",100,10,"1/3",1000,10,2,TRUE,0,0,0,TRUE,"c(1, 5, 2, 6, 3, 7, 4, 8)",0,"A","stable",0.01,TRUE,0
2,1,"2","2016-04-07 15:04:21.132",1460066661131813632,1460066656166,"state",0,"1",1.5,0,-1,0,"2/3",100,10,"1/3",1000,10,2,TRUE,0,0,0,TRUE,"c(1, 5, 2, 6, 3, 7, 4, 8)",0,"A","stable",0.01,TRUE,0
2,1,"2","2016-04-07 15:04:21.132",1460066661131813632,1460066656166,"state",0,"2",2.5,0,-1,0,"2/3",100,10,"1/3",1000,10,2,TRUE,0,0,0,TRUE,"c(1, 5, 2, 6, 3, 7, 4, 8)",0,"A","stable",0.01,TRUE,0
2,1,"2","2016-04-07 15:04:21.132",1460066661131813632,1460066656166,"state",0,"3",3.5,0,-1,0,"2/3",100,10,"1/3",1000,10,2,TRUE,0,0,0,TRUE,"c(1, 5, 2, 6, 3, 7, 4, 8)",0,"A","stable",0.01,TRUE,0
2,1,"2","2016-04-07 15:04:21.132",1460066661131813632,1460066656166,"state",0,"4",3.5,0,-1,0,"2/3",100,10,"1/3",1000,10,2,TRUE,0,0,0,TRUE,"c(1, 5, 2, 6, 3, 7, 4, 8)",0,"A","stable",0.01,TRUE,0
2,1,"2","2016-04-07 15:04:22.127",1460066662127419648,1460066657161,"state",0,"1",1.5,0,-1,0,"2/3",100,10,"1/3",1000,10,2,TRUE,0,0,0,TRUE,"c(1, 5, 2, 6, 3, 7, 4, 8)",0,"A","stable",0.01,TRUE,0
2,1,"2","2016-04-07 15:04:22.127",1460066662127419648,1460066657161,"state",0,"2",2.5,0,-1,0,"2/3",100,10,"1/3",1000,10,2,TRUE,0,0,0,TRUE,"c(1, 5, 2, 6, 3, 7, 4, 8)",0,"A","stable",0.01,TRUE,0
2,1,"2","2016-04-07 15:04:22.127",1460066662127419648,1460066657161,"state",0,"3",3.5,0,-1,0,"2/3",100,10,"1/3",1000,10,2,TRUE,0,0,0,TRUE,"c(1, 5, 2, 6, 3, 7, 4, 8)",0,"A","stable",0.01,TRUE,0
2,1,"2","2016-04-07 15:04:22.127",1460066662127419648,1460066657161,"state",0,"4",3.5,0,-1,0,"2/3",100,10,"1/3",1000,10,2,TRUE,0,0,0,TRUE,"c(1, 5, 2, 6, 3, 7, 4, 8)",0,"A","stable",0.01,TRUE,0
2,1,"2","2016-04-07 15:04:23.122",1460066663122306560,1460066658159,"state",0,"1",1.5,0,-1,0,"2/3",100,10,"1/3",1000,10,2,TRUE,0,0,0,TRUE,"c(1, 5, 2, 6, 3, 7, 4, 8)",0,"A","stable",0.01,TRUE,0
2,1,"2","2016-04-07 15:04:23.122",1460066663122306560,1460066658159,"state",0,"2",2.5,0,-1,0,"2/3",100,10,"1/3",1000,10,2,TRUE,0,0,0,TRUE,"c(1, 5, 2, 6, 3, 7, 4, 8)",0,"A","stable",0.01,TRUE,0
2,1,"2","2016-04-07 15:04:23.122",1460066663122306560,1460066658159,"state",0,"3",3.5,0,-1,0,"2/3",100,10,"1/3",1000,10,2,TRUE,0,0,0,TRUE,"c(1, 5, 2, 6, 3, 7, 4, 8)",0,"A","stable",0.01,TRUE,0
2,1,"2","2016-04-07 15:04:23.122",1460066663122306560,1460066658159,"state",0,"4",3.5,0,-1,0,"2/3",100,10,"1/3",1000,10,2,TRUE,0,0,0,TRUE,"c(1, 5, 2, 6, 3, 7, 4, 8)",0,"A","stable",0.01,TRUE,0
2,1,"2","2016-04-07 15:04:24.126",1460066664126054144,1460066659161,"state",0,"1",1.5,0,-1,0,"2/3",100,10,"1/3",1000,10,2,TRUE,0,0,0,TRUE,"c(1, 5, 2, 6, 3, 7, 4, 8)",0,"A","stable",0.01,TRUE,0
2,1,"2","2016-04-07 15:04:24.126",1460066664126054144,1460066659161,"state",0,"2",2.5,0,-1,0,"2/3",100,10,"1/3",1000,10,2,TRUE,0,0,0,TRUE,"c(1, 5, 2, 6, 3, 7, 4, 8)",0,"A","stable",0.01,TRUE,0
2,1,"2","2016-04-07 15:04:24.126",1460066664126054144,1460066659161,"state",0,"3",3.5,0,-1,0,"2/3",100,10,"1/3",1000,10,2,TRUE,0,0,0,TRUE,"c(1, 5, 2, 6, 3, 7, 4, 8)",0,"A","stable",0.01,TRUE,0
2,1,"2","2016-04-07 15:04:24.126",1460066664126054144,1460066659161,"state",0,"4",3.5,0,-1,0,"2/3",100,10,"1/3",1000,10,2,TRUE,0,0,0,TRUE,"c(1, 5, 2, 6, 3, 7, 4, 8)",0,"A","stable",0.01,TRUE,0
2,1,"2","2016-04-07 15:04:25.127",1460066665126883584,1460066660160,"state",0,"1",1.5,0,-1,0,"2/3",100,10,"1/3",1000,10,2,TRUE,0,0,0,TRUE,"c(1, 5, 2, 6, 3, 7, 4, 8)",0,"A","stable",0.01,TRUE,0
2,1,"2","2016-04-07 15:04:25.127",1460066665126883584,1460066660160,"state",0,"2",2.5,0,-1,0,"2/3",100,10,"1/3",1000,10,2,TRUE,0,0,0,TRUE,"c(1, 5, 2, 6, 3, 7, 4, 8)",0,"A","stable",0.01,TRUE,0
2,1,"2","2016-04-07 15:04:25.127",1460066665126883584,1460066660160,"state",0,"3",3.5,0,-1,0,"2/3",100,10,"1/3",1000,10,2,TRUE,0,0,0,TRUE,"c(1, 5, 2, 6, 3, 7, 4, 8)",0,"A","stable",0.01,TRUE,0
2,1,"2","2016-04-07 15:04:25.127",1460066665126883584,1460066660160,"state",0,"4",3.5,0,-1,0,"2/3",100,10,"1/3",1000,10,2,TRUE,0,0,0,TRUE,"c(1, 5, 2, 6, 3, 7, 4, 8)",0,"A","stable",0.01,TRUE,0
2,1,"2","2016-04-07 15:04:26.126",1460066666125569536,1460066661160,"state",0,"1",1.5,0,-1,0,"2/3",100,10,"1/3",1000,10,2,TRUE,0,0,0,TRUE,"c(1, 5, 2, 6, 3, 7, 4, 8)",0,"A","stable",0.01,TRUE,0
2,1,"2","2016-04-07 15:04:26.126",1460066666125569536,1460066661160,"state",0,"2",2.5,0,-1,0,"2/3",100,10,"1/3",1000,10,2,TRUE,0,0,0,TRUE,"c(1, 5, 2, 6, 3, 7, 4, 8)",0,"A","stable",0.01,TRUE,0
2,1,"2","2016-04-07 15:04:26.126",1460066666125569536,1460066661160,"state",0,"3",3.5,0,-1,0,"2/3",100,10,"1/3",1000,10,2,TRUE,0,0,0,TRUE,"c(1, 5, 2, 6, 3, 7, 4, 8)",0,"A","stable",0.01,TRUE,0
2,1,"2","2016-04-07 15:04:26.126",1460066666125569536,1460066661160,"state",0,"4",3.5,0,-1,0,"2/3",100,10,"1/3",1000,10,2,TRUE,0,0,0,TRUE,"c(1, 5, 2, 6, 3, 7, 4, 8)",0,"A","stable",0.01,TRUE,0
2,1,"2","2016-04-07 15:04:27.127",1460066667127283712,1460066662161,"state",0,"1",1.5,0,-1,0,"2/3",100,10,"1/3",1000,10,2,TRUE,0,0,0,TRUE,"c(1, 5, 2, 6, 3, 7, 4, 8)",0,"A","stable",0.01,TRUE,0
2,1,"2","2016-04-07 15:04:27.127",1460066667127283712,1460066662161,"state",0,"2",2.5,0,-1,0,"2/3",100,10,"1/3",1000,10,2,TRUE,0,0,0,TRUE,"c(1, 5, 2, 6, 3, 7, 4, 8)",0,"A","stable",0.01,TRUE,0
2,1,"2","2016-04-07 15:04:27.127",1460066667127283712,1460066662161,"state",0,"3",3.5,0,-1,0,"2/3",100,10,"1/3",1000,10,2,TRUE,0,0,0,TRUE,"c(1, 5, 2, 6, 3, 7, 4, 8)",0,"A","stable",0.01,TRUE,0
2,1,"2","2016-04-07 15:04:27.127",1460066667127283712,1460066662161,"state",0,"4",3.5,0,-1,0,"2/3",100,10,"1/3",1000,10,2,TRUE,0,0,0,TRUE,"c(1, 5, 2, 6, 3, 7, 4, 8)",0,"A","stable",0.01,TRUE,0
2,1,"2","2016-04-07 15:04:28.427",1460066668427405824,1460066663458,"state",0,"1",1.5,0,-1,0,"2/3",100,10,"1/3",1000,10,2,TRUE,0,0,0,TRUE,"c(1, 5, 2, 6, 3, 7, 4, 8)",0,"A","stable",0.01,TRUE,0
2,1,"2","2016-04-07 15:04:28.427",1460066668427405824,1460066663458,"state",0,"2",2.5,0,-1,0,"2/3",100,10,"1/3",1000,10,2,TRUE,0,0,0,TRUE,"c(1, 5, 2, 6, 3, 7, 4, 8)",0,"A","stable",0.01,TRUE,0
2,1,"2","2016-04-07 15:04:28.427",1460066668427405824,1460066663458,"state",0,"3",3.5,0,-1,0,"2/3",100,10,"1/3",1000,10,2,TRUE,0,0,0,TRUE,"c(1, 5, 2, 6, 3, 7, 4, 8)",0,"A","stable",0.01,TRUE,0
2,1,"2","2016-04-07 15:04:28.427",1460066668427405824,1460066663458,"state",0,"4",3.5,0,-1,0,"2/3",100,10,"1/3",1000,10,2,TRUE,0,0,0,TRUE,"c(1, 5, 2, 6, 3, 7, 4, 8)",0,"A","stable",0.01,TRUE,0
2,1,"2","2016-04-07 15:04:29.126",1460066669126346752,1460066664161,"state",0,"1",1.5,0,-1,0,"2/3",100,10,"1/3",1000,10,2,TRUE,0,0,0,TRUE,"c(1, 5, 2, 6, 3, 7, 4, 8)",0,"A","stable",0.01,TRUE,0
2,1,"2","2016-04-07 15:04:29.126",1460066669126346752,1460066664161,"state",0,"2",2.5,0,-1,0,"2/3",100,10,"1/3",1000,10,2,TRUE,0,0,0,TRUE,"c(1, 5, 2, 6, 3, 7, 4, 8)",0,"A","stable",0.01,TRUE,0
2,1,"2","2016-04-07 15:04:29.126",1460066669126346752,1460066664161,"state",0,"3",3.5,0,-1,0,"2/3",100,10,"1/3",1000,10,2,TRUE,0,0,0,TRUE,"c(1, 5, 2, 6, 3, 7, 4, 8)",0,"A","stable",0.01,TRUE,0
2,1,"2","2016-04-07 15:04:29.126",1460066669126346752,1460066664161,"state",0,"4",3.5,0,-1,0,"2/3",100,10,"1/3",1000,10,2,TRUE,0,0,0,TRUE,"c(1, 5, 2, 6, 3, 7, 4, 8)",0,"A","stable",0.01,TRUE,0
2,1,"2","2016-04-07 15:04:30.125",1460066670125079808,1460066665160,"state",0,"1",1.5,0,-1,0,"2/3",100,10,"1/3",1000,10,2,TRUE,0,0,0,TRUE,"c(1, 5, 2, 6, 3, 7, 4, 8)",0,"A","stable",0.01,TRUE,0
2,1,"2","2016-04-07 15:04:30.125",1460066670125079808,1460066665160,"state",0,"2",2.5,0,-1,0,"2/3",100,10,"1/3",1000,10,2,TRUE,0,0,0,TRUE,"c(1, 5, 2, 6, 3, 7, 4, 8)",0,"A","stable",0.01,TRUE,0
2,1,"2","2016-04-07 15:04:30.125",1460066670125079808,1460066665160,"state",0,"3",3.5,0,-1,0,"2/3",100,10,"1/3",1000,10,2,TRUE,0,0,0,TRUE,"c(1, 5, 2, 6, 3, 7, 4, 8)",0,"A","stable",0.01,TRUE,0
2,1,"2","2016-04-07 15:04:30.125",1460066670125079808,1460066665160,"state",0,"4",3.5,0,-1,0,"2/3",100,10,"1/3",1000,10,2,TRUE,0,0,0,TRUE,"c(1, 5, 2, 6, 3, 7, 4, 8)",0,"A","stable",0.01,TRUE,0
2,1,"2","2016-04-07 15:04:31.123",1460066671122539008,1460066666158,"state",0,"1",1.5,0,-1,0,"2/3",100,10,"1/3",1000,10,2,TRUE,0,0,0,TRUE,"c(1, 5, 2, 6, 3, 7, 4, 8)",0,"A","stable",0.01,TRUE,0
2,1,"2","2016-04-07 15:04:31.123",1460066671122539008,1460066666158,"state",0,"2",2.5,0,-1,0,"2/3",100,10,"1/3",1000,10,2,TRUE,0,0,0,TRUE,"c(1, 5, 2, 6, 3, 7, 4, 8)",0,"A","stable",0.01,TRUE,0
2,1,"2","2016-04-07 15:04:31.123",1460066671122539008,1460066666158,"state",0,"3",3.5,0,-1,0,"2/3",100,10,"1/3",1000,10,2,TRUE,0,0,0,TRUE,"c(1, 5, 2, 6, 3, 7, 4, 8)",0,"A","stable",0.01,TRUE,0
2,1,"2","2016-04-07 15:04:31.123",1460066671122539008,1460066666158,"state",0,"4",3.5,0,-1,0,"2/3",100,10,"1/3",1000,10,2,TRUE,0,0,0,TRUE,"c(1, 5, 2, 6, 3, 7, 4, 8)",0,"A","stable",0.01,TRUE,0
2,1,"2","2016-04-07 15:04:32.130",1460066672130241536,1460066667165,"state",0,"1",1.5,0,-1,0,"2/3",100,10,"1/3",1000,10,2,TRUE,0,0,0,TRUE,"c(1, 5, 2, 6, 3, 7, 4, 8)",0,"A","stable",0.01,TRUE,0
2,1,"2","2016-04-07 15:04:32.130",1460066672130241536,1460066667165,"state",0,"2",2.5,0,-1,0,"2/3",100,10,"1/3",1000,10,2,TRUE,0,0,0,TRUE,"c(1, 5, 2, 6, 3, 7, 4, 8)",0,"A","stable",0.01,TRUE,0
2,1,"2","2016-04-07 15:04:32.130",1460066672130241536,1460066667165,"state",0,"3",3.5,0,-1,0,"2/3",100,10,"1/3",1000,10,2,TRUE,0,0,0,TRUE,"c(1, 5, 2, 6, 3, 7, 4, 8)",0,"A","stable",0.01,TRUE,0
2,1,"2","2016-04-07 15:04:32.130",1460066672130241536,1460066667165,"state",0,"4",3.5,0,-1,0,"2/3",100,10,"1/3",1000,10,2,TRUE,0,0,0,TRUE,"c(1, 5, 2, 6, 3, 7, 4, 8)",0,"A","stable",0.01,TRUE,0
2,1,"2","2016-04-07 15:04:33.130",1.46006667313e+18,1460066668163,"state",0,"1",1.5,0,-1,0,"2/3",100,10,"1/3",1000,10,2,TRUE,0,0,0,TRUE,"c(1, 5, 2, 6, 3, 7, 4, 8)",0,"A","stable",0.01,TRUE,0
2,1,"2","2016-04-07 15:04:33.130",1.46006667313e+18,1460066668163,"state",0,"2",2.5,0,-1,0,"2/3",100,10,"1/3",1000,10,2,TRUE,0,0,0,TRUE,"c(1, 5, 2, 6, 3, 7, 4, 8)",0,"A","stable",0.01,TRUE,0
2,1,"2","2016-04-07 15:04:33.130",1.46006667313e+18,1460066668163,"state",0,"3",3.5,0,-1,0,"2/3",100,10,"1/3",1000,10,2,TRUE,0,0,0,TRUE,"c(1, 5, 2, 6, 3, 7, 4, 8)",0,"A","stable",0.01,TRUE,0
2,1,"2","2016-04-07 15:04:33.130",1.46006667313e+18,1460066668163,"state",0,"4",3.5,0,-1,0,"2/3",100,10,"1/3",1000,10,2,TRUE,0,0,0,TRUE,"c(1, 5, 2, 6, 3, 7, 4, 8)",0,"A","stable",0.01,TRUE,0
2,1,"2","2016-04-07 15:04:34.125",1460066674125039104,1460066669158,"state",0,"1",1.5,0,-1,0,"2/3",100,10,"1/3",1000,10,2,TRUE,0,0,0,TRUE,"c(1, 5, 2, 6, 3, 7, 4, 8)",0,"A","stable",0.01,TRUE,0
2,1,"2","2016-04-07 15:04:34.125",1460066674125039104,1460066669158,"state",0,"2",2.5,0,-1,0,"2/3",100,10,"1/3",1000,10,2,TRUE,0,0,0,TRUE,"c(1, 5, 2, 6, 3, 7, 4, 8)",0,"A","stable",0.01,TRUE,0
2,1,"2","2016-04-07 15:04:34.125",1460066674125039104,1460066669158,"state",0,"3",3.5,0,-1,0,"2/3",100,10,"1/3",1000,10,2,TRUE,0,0,0,TRUE,"c(1, 5, 2, 6, 3, 7, 4, 8)",0,"A","stable",0.01,TRUE,0
2,1,"2","2016-04-07 15:04:34.125",1460066674125039104,1460066669158,"state",0,"4",3.5,0,-1,0,"2/3",100,10,"1/3",1000,10,2,TRUE,0,0,0,TRUE,"c(1, 5, 2, 6, 3, 7, 4, 8)",0,"A","stable",0.01,TRUE,0
2,1,"2","2016-04-07 15:04:35.126",1460066675125658624,1460066670161,"state",0,"1",1.5,0,-1,0,"2/3",100,10,"1/3",1000,10,2,TRUE,0,0,0,TRUE,"c(1, 5, 2, 6, 3, 7, 4, 8)",0,"A","stable",0.01,TRUE,0
2,1,"2","2016-04-07 15:04:35.126",1460066675125658624,1460066670161,"state",0,"2",2.5,0,-1,0,"2/3",100,10,"1/3",1000,10,2,TRUE,0,0,0,TRUE,"c(1, 5, 2, 6, 3, 7, 4, 8)",0,"A","stable",0.01,TRUE,0
2,1,"2","2016-04-07 15:04:35.126",1460066675125658624,1460066670161,"state",0,"3",3.5,0,-1,0,"2/3",100,10,"1/3",1000,10,2,TRUE,0,0,0,TRUE,"c(1, 5, 2, 6, 3, 7, 4, 8)",0,"A","stable",0.01,TRUE,0
2,1,"2","2016-04-07 15:04:35.126",1460066675125658624,1460066670161,"state",0,"4",3.5,0,-1,0,"2/3",100,10,"1/3",1000,10,2,TRUE,0,0,0,TRUE,"c(1, 5, 2, 6, 3, 7, 4, 8)",0,"A","stable",0.01,TRUE,0
2,1,"2","2016-04-07 15:04:36.131",1460066676131490816,1460066671166,"state",0,"1",1.5,0,-1,0,"2/3",100,10,"1/3",1000,10,2,TRUE,0,0,0,TRUE,"c(1, 5, 2, 6, 3, 7, 4, 8)",0,"A","stable",0.01,TRUE,0
2,1,"2","2016-04-07 15:04:36.131",1460066676131490816,1460066671166,"state",0,"2",2.5,0,-1,0,"2/3",100,10,"1/3",1000,10,2,TRUE,0,0,0,TRUE,"c(1, 5, 2, 6, 3, 7, 4, 8)",0,"A","stable",0.01,TRUE,0
2,1,"2","2016-04-07 15:04:36.131",1460066676131490816,1460066671166,"state",0,"3",3.5,0,-1,0,"2/3",100,10,"1/3",1000,10,2,TRUE,0,0,0,TRUE,"c(1, 5, 2, 6, 3, 7, 4, 8)",0,"A","stable",0.01,TRUE,0
2,1,"2","2016-04-07 15:04:36.131",1460066676131490816,1460066671166,"state",0,"4",3.5,0,-1,0,"2/3",100,10,"1/3",1000,10,2,TRUE,0,0,0,TRUE,"c(1, 5, 2, 6, 3, 7, 4, 8)",0,"A","stable",0.01,TRUE,0
2,1,"2","2016-04-07 15:04:37.125",1460066677125363200,1460066672159,"state",0,"1",1.5,0,-1,0,"2/3",100,10,"1/3",1000,10,2,TRUE,0,0,0,TRUE,"c(1, 5, 2, 6, 3, 7, 4, 8)",0,"A","stable",0.01,TRUE,0
2,1,"2","2016-04-07 15:04:37.125",1460066677125363200,1460066672159,"state",0,"2",2.5,0,-1,0,"2/3",100,10,"1/3",1000,10,2,TRUE,0,0,0,TRUE,"c(1, 5, 2, 6, 3, 7, 4, 8)",0,"A","stable",0.01,TRUE,0
2,1,"2","2016-04-07 15:04:37.125",1460066677125363200,1460066672159,"state",0,"3",3.5,0,-1,0,"2/3",100,10,"1/3",1000,10,2,TRUE,0,0,0,TRUE,"c(1, 5, 2, 6, 3, 7, 4, 8)",0,"A","stable",0.01,TRUE,0
2,1,"2","2016-04-07 15:04:37.125",1460066677125363200,1460066672159,"state",0,"4",3.5,0,-1,0,"2/3",100,10,"1/3",1000,10,2,TRUE,0,0,0,TRUE,"c(1, 5, 2, 6, 3, 7, 4, 8)",0,"A","stable",0.01,TRUE,0
2,1,"2","2016-04-07 15:04:38.128",1460066678127560192,1460066673160,"state",0,"1",1.5,0,-1,0,"2/3",100,10,"1/3",1000,10,2,TRUE,0,0,0,TRUE,"c(1, 5, 2, 6, 3, 7, 4, 8)",0,"A","stable",0.01,TRUE,0
2,1,"2","2016-04-07 15:04:38.128",1460066678127560192,1460066673160,"state",0,"2",2.5,0,-1,0,"2/3",100,10,"1/3",1000,10,2,TRUE,0,0,0,TRUE,"c(1, 5, 2, 6, 3, 7, 4, 8)",0,"A","stable",0.01,TRUE,0
2,1,"2","2016-04-07 15:04:38.128",1460066678127560192,1460066673160,"state",0,"3",3.5,0,-1,0,"2/3",100,10,"1/3",1000,10,2,TRUE,0,0,0,TRUE,"c(1, 5, 2, 6, 3, 7, 4, 8)",0,"A","stable",0.01,TRUE,0
2,1,"2","2016-04-07 15:04:38.128",1460066678127560192,1460066673160,"state",0,"4",3.5,0,-1,0,"2/3",100,10,"1/3",1000,10,2,TRUE,0,0,0,TRUE,"c(1, 5, 2, 6, 3, 7, 4, 8)",0,"A","stable",0.01,TRUE,0
2,1,"2","2016-04-07 15:04:39.136",1460066679135594752,1460066674162,"state",0,"1",1.5,0,-1,0,"2/3",100,10,"1/3",1000,10,2,TRUE,0,0,0,TRUE,"c(1, 5, 2, 6, 3, 7, 4, 8)",0,"A","stable",0.01,TRUE,0
2,1,"2","2016-04-07 15:04:39.136",1460066679135594752,1460066674162,"state",0,"2",2.5,0,-1,0,"2/3",100,10,"1/3",1000,10,2,TRUE,0,0,0,TRUE,"c(1, 5, 2, 6, 3, 7, 4, 8)",0,"A","stable",0.01,TRUE,0
2,1,"2","2016-04-07 15:04:39.136",1460066679135594752,1460066674162,"state",0,"3",3.5,0,-1,0,"2/3",100,10,"1/3",1000,10,2,TRUE,0,0,0,TRUE,"c(1, 5, 2, 6, 3, 7, 4, 8)",0,"A","stable",0.01,TRUE,0
2,1,"2","2016-04-07 15:04:39.136",1460066679135594752,1460066674162,"state",0,"4",3.5,0,-1,0,"2/3",100,10,"1/3",1000,10,2,TRUE,0,0,0,TRUE,"c(1, 5, 2, 6, 3, 7, 4, 8)",0,"A","stable",0.01,TRUE,0
2,1,"2","2016-04-07 15:04:40.130",1460066680129537280,1460066675162,"state",0,"1",1.5,0,-1,0,"2/3",100,10,"1/3",1000,10,2,TRUE,0,0,0,TRUE,"c(1, 5, 2, 6, 3, 7, 4, 8)",0,"A","stable",0.01,TRUE,0
2,1,"2","2016-04-07 15:04:40.130",1460066680129537280,1460066675162,"state",0,"2",2.5,0,-1,0,"2/3",100,10,"1/3",1000,10,2,TRUE,0,0,0,TRUE,"c(1, 5, 2, 6, 3, 7, 4, 8)",0,"A","stable",0.01,TRUE,0
2,1,"2","2016-04-07 15:04:40.130",1460066680129537280,1460066675162,"state",0,"3",3.5,0,-1,0,"2/3",100,10,"1/3",1000,10,2,TRUE,0,0,0,TRUE,"c(1, 5, 2, 6, 3, 7, 4, 8)",0,"A","stable",0.01,TRUE,0
2,1,"2","2016-04-07 15:04:40.130",1460066680129537280,1460066675162,"state",0,"4",3.5,0,-1,0,"2/3",100,10,"1/3",1000,10,2,TRUE,0,0,0,TRUE,"c(1, 5, 2, 6, 3, 7, 4, 8)",0,"A","stable",0.01,TRUE,0
2,1,"2","2016-04-07 15:04:41.136",1460066681135716608,1460066676172,"state",0,"1",1.5,0,-1,0,"2/3",100,10,"1/3",1000,10,2,TRUE,0,0,0,TRUE,"c(1, 5, 2, 6, 3, 7, 4, 8)",0,"A","stable",0.01,TRUE,0
2,1,"2","2016-04-07 15:04:41.136",1460066681135716608,1460066676172,"state",0,"2",2.5,0,-1,0,"2/3",100,10,"1/3",1000,10,2,TRUE,0,0,0,TRUE,"c(1, 5, 2, 6, 3, 7, 4, 8)",0,"A","stable",0.01,TRUE,0
2,1,"2","2016-04-07 15:04:41.136",1460066681135716608,1460066676172,"state",0,"3",3.5,0,-1,0,"2/3",100,10,"1/3",1000,10,2,TRUE,0,0,0,TRUE,"c(1, 5, 2, 6, 3, 7, 4, 8)",0,"A","stable",0.01,TRUE,0
2,1,"2","2016-04-07 15:04:41.136",1460066681135716608,1460066676172,"state",0,"4",3.5,0,-1,0,"2/3",100,10,"1/3",1000,10,2,TRUE,0,0,0,TRUE,"c(1, 5, 2, 6, 3, 7, 4, 8)",0,"A","stable",0.01,TRUE,0
2,1,"2","2016-04-07 15:04:42.129",1460066682129420032,1460066677161,"state",0,"1",1.5,0,-1,0,"2/3",100,10,"1/3",1000,10,2,TRUE,0,0,0,TRUE,"c(1, 5, 2, 6, 3, 7, 4, 8)",0,"A","stable",0.01,TRUE,0
2,1,"2","2016-04-07 15:04:42.129",1460066682129420032,1460066677161,"state",0,"2",2.5,0,-1,0,"2/3",100,10,"1/3",1000,10,2,TRUE,0,0,0,TRUE,"c(1, 5, 2, 6, 3, 7, 4, 8)",0,"A","stable",0.01,TRUE,0
2,1,"2","2016-04-07 15:04:42.129",1460066682129420032,1460066677161,"state",0,"3",3.5,0,-1,0,"2/3",100,10,"1/3",1000,10,2,TRUE,0,0,0,TRUE,"c(1, 5, 2, 6, 3, 7, 4, 8)",0,"A","stable",0.01,TRUE,0
2,1,"2","2016-04-07 15:04:42.129",1460066682129420032,1460066677161,"state",0,"4",3.5,0,-1,0,"2/3",100,10,"1/3",1000,10,2,TRUE,0,0,0,TRUE,"c(1, 5, 2, 6, 3, 7, 4, 8)",0,"A","stable",0.01,TRUE,0
3,1,"2","2016-04-07 15:04:59.061",1460066699061176832,1460066694097,"state",0,"1",1.5,0,0,0,"2/3",100,10,"1/3",1000,10,3,TRUE,0,0,0.3,FALSE,"c(1, 5, 2, 6, 3, 7, 4, 8)",0,"A","stable",0.01,TRUE,2
3,1,"2","2016-04-07 15:04:59.061",1460066699061176832,1460066694097,"state",0,"2",2.5,0,0,0,"2/3",100,10,"1/3",1000,10,3,TRUE,0,0,0.3,FALSE,"c(1, 5, 2, 6, 3, 7, 4, 8)",0,"A","stable",0.01,TRUE,2
3,1,"2","2016-04-07 15:04:59.061",1460066699061176832,1460066694097,"state",0,"3",3.5,0,0,0,"2/3",100,10,"1/3",1000,10,3,TRUE,0,0,0.3,FALSE,"c(1, 5, 2, 6, 3, 7, 4, 8)",0,"A","stable",0.01,TRUE,2
3,1,"2","2016-04-07 15:04:59.061",1460066699061176832,1460066694097,"state",0,"4",3.5,0,0,0,"2/3",100,10,"1/3",1000,10,3,TRUE,0,0,0.3,FALSE,"c(1, 5, 2, 6, 3, 7, 4, 8)",0,"A","stable",0.01,TRUE,2
3,1,"2","2016-04-07 15:05:49.128",1460066749127835392,1460066744159,"state",0,"1",1.5,0,1,0,"2/3",100,10,"1/3",1000,10,3,TRUE,0,0,0.3,FALSE,"c(1, 5, 2, 6, 3, 7, 4, 8)",0,"A","stable",0.01,TRUE,2
3,1,"2","2016-04-07 15:05:49.128",1460066749127835392,1460066744159,"state",0,"2",2.5,0,1,0,"2/3",100,10,"1/3",1000,10,3,TRUE,0,0,0.3,FALSE,"c(1, 5, 2, 6, 3, 7, 4, 8)",0,"A","stable",0.01,TRUE,2
3,1,"2","2016-04-07 15:05:49.128",1460066749127835392,1460066744159,"state",0,"3",3.5,0,1,0,"2/3",100,10,"1/3",1000,10,3,TRUE,0,0,0.3,FALSE,"c(1, 5, 2, 6, 3, 7, 4, 8)",0,"A","stable",0.01,TRUE,2
3,1,"2","2016-04-07 15:05:49.128",1460066749127835392,1460066744159,"state",0,"4",3.5,0,1,0,"2/3",100,10,"1/3",1000,10,3,TRUE,0,0,0.3,FALSE,"c(1, 5, 2, 6, 3, 7, 4, 8)",0,"A","stable",0.01,TRUE,2
3,1,"2","2016-04-07 15:06:39.134",1460066799133617920,1460066794164,"state",0,"1",1.5,0,2,0,"2/3",100,10,"1/3",1000,10,3,TRUE,0,0,0.3,FALSE,"c(1, 5, 2, 6, 3, 7, 4, 8)",0,"A","stable",0.01,TRUE,2
3,1,"2","2016-04-07 15:06:39.134",1460066799133617920,1460066794164,"state",0,"2",2.5,0,2,0,"2/3",100,10,"1/3",1000,10,3,TRUE,0,0,0.3,FALSE,"c(1, 5, 2, 6, 3, 7, 4, 8)",0,"A","stable",0.01,TRUE,2
3,1,"2","2016-04-07 15:06:39.134",1460066799133617920,1460066794164,"state",0,"3",3.5,0,2,0,"2/3",100,10,"1/3",1000,10,3,TRUE,0,0,0.3,FALSE,"c(1, 5, 2, 6, 3, 7, 4, 8)",0,"A","stable",0.01,TRUE,2
3,1,"2","2016-04-07 15:06:39.134",1460066799133617920,1460066794164,"state",0,"4",3.5,0,2,0,"2/3",100,10,"1/3",1000,10,3,TRUE,0,0,0.3,FALSE,"c(1, 5, 2, 6, 3, 7, 4, 8)",0,"A","stable",0.01,TRUE,2
