"","Period","Group","Sender","datetime","Time","Key","target","state.subjectid","state.rank","state.action","state.subperiodNumber","state.payoff","config.groups","config.ymax","config.ymin","config.period_length_s","config.num_sub_periods","config.step","config.snap","config.payoff","config.hidePayoffs","config.payoffProjection","config.q1","config.q2","config.mu","config.payoffLabel","config.minX","config.maxX","config.adjustAccuracy","config.actionHistory","config.initialActions","Time.Period"
"1",1,1,"1","2016-05-10 14:04:52.800",14629142928,"state",0.25,"1",1,0.25,0,33.3333333333333,"[[1,2,3,4],[5,6,7,8]]",1000,0,60,10,0,0,"stable",TRUE,TRUE,"2/3","1/3",100,"A",0,10,0.01,TRUE,"[.25,.5,.75,1,1.25,1.5,1.75]",0
"2",1,1,"1","2016-05-10 14:04:52.800",14629142928,"state",0.5,"2",2,0.5,0,55.5555555555556,"[[1,2,3,4],[5,6,7,8]]",1000,0,60,10,0,0,"stable",TRUE,TRUE,"2/3","1/3",100,"A",0,10,0.01,TRUE,"[.25,.5,.75,1,1.25,1.5,1.75]",0
"3",1,1,"1","2016-05-10 14:04:52.800",14629142928,"state",0.75,"3",3,0.75,0,66.6666666666667,"[[1,2,3,4],[5,6,7,8]]",1000,0,60,10,0,0,"stable",TRUE,TRUE,"2/3","1/3",100,"A",0,10,0.01,TRUE,"[.25,.5,.75,1,1.25,1.5,1.75]",0
"4",1,1,"1","2016-05-10 14:04:52.800",14629142928,"state",1,"4",4,1,0,66.6666666666667,"[[1,2,3,4],[5,6,7,8]]",1000,0,60,10,0,0,"stable",TRUE,TRUE,"2/3","1/3",100,"A",0,10,0.01,TRUE,"[.25,.5,.75,1,1.25,1.5,1.75]",0
"5",1,1,"1","2016-05-10 14:04:58.900",14629142989,"state",8.08,"1",1,8.08,1,718.222222222222,"[[1,2,3,4],[5,6,7,8]]",1000,0,60,10,0,0,"stable",TRUE,TRUE,"2/3","1/3",100,"A",0,10,0.01,TRUE,"[.25,.5,.75,1,1.25,1.5,1.75]",6.1
"6",1,1,"1","2016-05-10 14:04:58.900",14629142989,"state",9.83,"2",2,9.83,1,655.333333333333,"[[1,2,3,4],[5,6,7,8]]",1000,0,60,10,0,0,"stable",TRUE,TRUE,"2/3","1/3",100,"A",0,10,0.01,TRUE,"[.25,.5,.75,1,1.25,1.5,1.75]",6.1
"7",1,1,"1","2016-05-10 14:04:58.900",14629142989,"state",4.74,"3",3,4.74,1,430.666666666667,"[[1,2,3,4],[5,6,7,8]]",1000,0,60,10,0,0,"stable",TRUE,TRUE,"2/3","1/3",100,"A",0,10,0.01,TRUE,"[.25,.5,.75,1,1.25,1.5,1.75]",6.1
"8",1,1,"1","2016-05-10 14:04:58.900",14629142989,"state",4.17,"4",4,4.17,1,463.333333333333,"[[1,2,3,4],[5,6,7,8]]",1000,0,60,10,0,0,"stable",TRUE,TRUE,"2/3","1/3",100,"A",0,10,0.01,TRUE,"[.25,.5,.75,1,1.25,1.5,1.75]",6.1
"9",1,1,"1","2016-05-10 14:05:05.000",14629143050,"state",9.87,"1",1,9.87,2,658,"[[1,2,3,4],[5,6,7,8]]",1000,0,60,10,0,0,"stable",TRUE,TRUE,"2/3","1/3",100,"A",0,10,0.01,TRUE,"[.25,.5,.75,1,1.25,1.5,1.75]",12.2
"10",1,1,"1","2016-05-10 14:05:05.000",14629143050,"state",6.28,"2",2,6.28,2,558.222222222222,"[[1,2,3,4],[5,6,7,8]]",1000,0,60,10,0,0,"stable",TRUE,TRUE,"2/3","1/3",100,"A",0,10,0.01,TRUE,"[.25,.5,.75,1,1.25,1.5,1.75]",12.2
"11",1,1,"1","2016-05-10 14:05:05.000",14629143050,"state",1.78,"3",3,1.78,2,237.333333333333,"[[1,2,3,4],[5,6,7,8]]",1000,0,60,10,0,0,"stable",TRUE,TRUE,"2/3","1/3",100,"A",0,10,0.01,TRUE,"[.25,.5,.75,1,1.25,1.5,1.75]",12.2
"12",1,1,"1","2016-05-10 14:05:05.000",14629143050,"state",5.18,"4",4,5.18,2,575.555555555556,"[[1,2,3,4],[5,6,7,8]]",1000,0,60,10,0,0,"stable",TRUE,TRUE,"2/3","1/3",100,"A",0,10,0.01,TRUE,"[.25,.5,.75,1,1.25,1.5,1.75]",12.2
"13",1,1,"1","2016-05-10 14:05:11.200",14629143112,"state",4.16,"1",1,4.16,3,369.777777777778,"[[1,2,3,4],[5,6,7,8]]",1000,0,60,10,0,0,"stable",TRUE,TRUE,"2/3","1/3",100,"A",0,10,0.01,TRUE,"[.25,.5,.75,1,1.25,1.5,1.75]",18.4
"14",1,1,"1","2016-05-10 14:05:11.200",14629143112,"state",1.71,"2",2,1.71,3,228,"[[1,2,3,4],[5,6,7,8]]",1000,0,60,10,0,0,"stable",TRUE,TRUE,"2/3","1/3",100,"A",0,10,0.01,TRUE,"[.25,.5,.75,1,1.25,1.5,1.75]",18.4
"15",1,1,"1","2016-05-10 14:05:11.200",14629143112,"state",5.33,"3",3,5.33,3,355.333333333333,"[[1,2,3,4],[5,6,7,8]]",1000,0,60,10,0,0,"stable",TRUE,TRUE,"2/3","1/3",100,"A",0,10,0.01,TRUE,"[.25,.5,.75,1,1.25,1.5,1.75]",18.4
"16",1,1,"1","2016-05-10 14:05:11.200",14629143112,"state",3.74,"4",4,3.74,3,415.555555555556,"[[1,2,3,4],[5,6,7,8]]",1000,0,60,10,0,0,"stable",TRUE,TRUE,"2/3","1/3",100,"A",0,10,0.01,TRUE,"[.25,.5,.75,1,1.25,1.5,1.75]",18.4
"17",1,1,"1","2016-05-10 14:05:17.300",14629143173,"state",2.03,"1",1,2.03,4,270.666666666667,"[[1,2,3,4],[5,6,7,8]]",1000,0,60,10,0,0,"stable",TRUE,TRUE,"2/3","1/3",100,"A",0,10,0.01,TRUE,"[.25,.5,.75,1,1.25,1.5,1.75]",24.5
"18",1,1,"1","2016-05-10 14:05:17.300",14629143173,"state",4.69,"2",2,4.69,4,416.888888888889,"[[1,2,3,4],[5,6,7,8]]",1000,0,60,10,0,0,"stable",TRUE,TRUE,"2/3","1/3",100,"A",0,10,0.01,TRUE,"[.25,.5,.75,1,1.25,1.5,1.75]",24.5
"19",1,1,"1","2016-05-10 14:05:17.300",14629143173,"state",3.26,"3",3,3.26,4,362.222222222222,"[[1,2,3,4],[5,6,7,8]]",1000,0,60,10,0,0,"stable",TRUE,TRUE,"2/3","1/3",100,"A",0,10,0.01,TRUE,"[.25,.5,.75,1,1.25,1.5,1.75]",24.5
"20",1,1,"1","2016-05-10 14:05:17.300",14629143173,"state",9.56,"4",4,9.56,4,637.333333333333,"[[1,2,3,4],[5,6,7,8]]",1000,0,60,10,0,0,"stable",TRUE,TRUE,"2/3","1/3",100,"A",0,10,0.01,TRUE,"[.25,.5,.75,1,1.25,1.5,1.75]",24.5
"21",1,1,"1","2016-05-10 14:05:23.500",14629143235,"state",7.32,"1",1,7.32,5,488,"[[1,2,3,4],[5,6,7,8]]",1000,0,60,10,0,0,"stable",TRUE,TRUE,"2/3","1/3",100,"A",0,10,0.01,TRUE,"[.25,.5,.75,1,1.25,1.5,1.75]",30.7
"22",1,1,"1","2016-05-10 14:05:23.500",14629143235,"state",5.77,"2",2,5.77,5,512.888888888889,"[[1,2,3,4],[5,6,7,8]]",1000,0,60,10,0,0,"stable",TRUE,TRUE,"2/3","1/3",100,"A",0,10,0.01,TRUE,"[.25,.5,.75,1,1.25,1.5,1.75]",30.7
"23",1,1,"1","2016-05-10 14:05:23.500",14629143235,"state",5.75,"3",3,5.75,5,638.888888888889,"[[1,2,3,4],[5,6,7,8]]",1000,0,60,10,0,0,"stable",TRUE,TRUE,"2/3","1/3",100,"A",0,10,0.01,TRUE,"[.25,.5,.75,1,1.25,1.5,1.75]",30.7
"24",1,1,"1","2016-05-10 14:05:23.500",14629143235,"state",3,"4",4,3,5,400,"[[1,2,3,4],[5,6,7,8]]",1000,0,60,10,0,0,"stable",TRUE,TRUE,"2/3","1/3",100,"A",0,10,0.01,TRUE,"[.25,.5,.75,1,1.25,1.5,1.75]",30.7
"25",1,1,"1","2016-05-10 14:05:29.600",14629143296,"state",5.12,"1",1,5.12,6,455.111111111111,"[[1,2,3,4],[5,6,7,8]]",1000,0,60,10,0,0,"stable",TRUE,TRUE,"2/3","1/3",100,"A",0,10,0.01,TRUE,"[.25,.5,.75,1,1.25,1.5,1.75]",36.8
"26",1,1,"1","2016-05-10 14:05:29.600",14629143296,"state",5.75,"2",2,5.75,6,383.333333333333,"[[1,2,3,4],[5,6,7,8]]",1000,0,60,10,0,0,"stable",TRUE,TRUE,"2/3","1/3",100,"A",0,10,0.01,TRUE,"[.25,.5,.75,1,1.25,1.5,1.75]",36.8
"27",1,1,"1","2016-05-10 14:05:29.600",14629143296,"state",5.18,"3",3,5.18,6,189.333333333333,"[[1,2,3,4],[5,6,7,8]]",1000,0,60,10,0,0,"stable",TRUE,TRUE,"2/3","1/3",100,"A",0,10,0.01,TRUE,"[.25,.5,.75,1,1.25,1.5,1.75]",36.8
"28",1,1,"1","2016-05-10 14:05:29.600",14629143296,"state",3.34,"4",4,3.34,6,504.444444444444,"[[1,2,3,4],[5,6,7,8]]",1000,0,60,10,0,0,"stable",TRUE,TRUE,"2/3","1/3",100,"A",0,10,0.01,TRUE,"[.25,.5,.75,1,1.25,1.5,1.75]",36.8
"29",1,1,"1","2016-05-10 14:05:35.800",14629143358,"state",0.11,"1",1,0.11,7,14.6666666666667,"[[1,2,3,4],[5,6,7,8]]",1000,0,60,10,0,0,"stable",TRUE,TRUE,"2/3","1/3",100,"A",0,10,0.01,TRUE,"[.25,.5,.75,1,1.25,1.5,1.75]",43
"30",1,1,"1","2016-05-10 14:05:35.800",14629143358,"state",3.76,"2",2,3.76,7,417.777777777778,"[[1,2,3,4],[5,6,7,8]]",1000,0,60,10,0,0,"stable",TRUE,TRUE,"2/3","1/3",100,"A",0,10,0.01,TRUE,"[.25,.5,.75,1,1.25,1.5,1.75]",43
"31",1,1,"1","2016-05-10 14:05:35.800",14629143358,"state",2.49,"3",3,2.49,7,402,"[[1,2,3,4],[5,6,7,8]]",1000,0,60,10,0,0,"stable",TRUE,TRUE,"2/3","1/3",100,"A",0,10,0.01,TRUE,"[.25,.5,.75,1,1.25,1.5,1.75]",43
"32",1,1,"1","2016-05-10 14:05:35.800",14629143358,"state",5.56,"4",4,5.56,7,494.222222222222,"[[1,2,3,4],[5,6,7,8]]",1000,0,60,10,0,0,"stable",TRUE,TRUE,"2/3","1/3",100,"A",0,10,0.01,TRUE,"[.25,.5,.75,1,1.25,1.5,1.75]",43
"33",1,1,"1","2016-05-10 14:05:41.900",14629143419,"state",1.02,"1",1,1.02,8,113.333333333333,"[[1,2,3,4],[5,6,7,8]]",1000,0,60,10,0,0,"stable",TRUE,TRUE,"2/3","1/3",100,"A",0,10,0.01,TRUE,"[.25,.5,.75,1,1.25,1.5,1.75]",49.1
"34",1,1,"1","2016-05-10 14:05:41.900",14629143419,"state",0.57,"2",2,0.57,8,76,"[[1,2,3,4],[5,6,7,8]]",1000,0,60,10,0,0,"stable",TRUE,TRUE,"2/3","1/3",100,"A",0,10,0.01,TRUE,"[.25,.5,.75,1,1.25,1.5,1.75]",49.1
"35",1,1,"1","2016-05-10 14:05:41.900",14629143419,"state",5.64,"3",3,5.64,8,376,"[[1,2,3,4],[5,6,7,8]]",1000,0,60,10,0,0,"stable",TRUE,TRUE,"2/3","1/3",100,"A",0,10,0.01,TRUE,"[.25,.5,.75,1,1.25,1.5,1.75]",49.1
"36",1,1,"1","2016-05-10 14:05:41.900",14629143419,"state",3.85,"4",4,3.85,8,342.222222222222,"[[1,2,3,4],[5,6,7,8]]",1000,0,60,10,0,0,"stable",TRUE,TRUE,"2/3","1/3",100,"A",0,10,0.01,TRUE,"[.25,.5,.75,1,1.25,1.5,1.75]",49.1
"37",1,1,"1","2016-05-10 14:05:48.000",14629143480,"state",2.54,"1",1,2.54,9,225.777777777778,"[[1,2,3,4],[5,6,7,8]]",1000,0,60,10,0,0,"stable",TRUE,TRUE,"2/3","1/3",100,"A",0,10,0.01,TRUE,"[.25,.5,.75,1,1.25,1.5,1.75]",55.2
"38",1,1,"1","2016-05-10 14:05:48.000",14629143480,"state",3.83,"2",2,3.83,9,255.333333333333,"[[1,2,3,4],[5,6,7,8]]",1000,0,60,10,0,0,"stable",TRUE,TRUE,"2/3","1/3",100,"A",0,10,0.01,TRUE,"[.25,.5,.75,1,1.25,1.5,1.75]",55.2
"39",1,1,"1","2016-05-10 14:05:48.000",14629143480,"state",2.35,"3",3,2.35,9,261.111111111111,"[[1,2,3,4],[5,6,7,8]]",1000,0,60,10,0,0,"stable",TRUE,TRUE,"2/3","1/3",100,"A",0,10,0.01,TRUE,"[.25,.5,.75,1,1.25,1.5,1.75]",55.2
"40",1,1,"1","2016-05-10 14:05:48.000",14629143480,"state",2.33,"4",4,2.33,9,310.666666666667,"[[1,2,3,4],[5,6,7,8]]",1000,0,60,10,0,0,"stable",TRUE,TRUE,"2/3","1/3",100,"A",0,10,0.01,TRUE,"[.25,.5,.75,1,1.25,1.5,1.75]",55.2
"41",1,1,"1","2016-05-10 14:05:54.300",14629143543,"state",6.93,"1",1,6.93,10,770,"[[1,2,3,4],[5,6,7,8]]",1000,0,60,10,0,0,"stable",TRUE,TRUE,"2/3","1/3",100,"A",0,10,0.01,TRUE,"[.25,.5,.75,1,1.25,1.5,1.75]",61.5
"42",1,1,"1","2016-05-10 14:05:54.300",14629143543,"state",7.61,"2",2,7.61,10,676.444444444444,"[[1,2,3,4],[5,6,7,8]]",1000,0,60,10,0,0,"stable",TRUE,TRUE,"2/3","1/3",100,"A",0,10,0.01,TRUE,"[.25,.5,.75,1,1.25,1.5,1.75]",61.5
"43",1,1,"1","2016-05-10 14:05:54.300",14629143543,"state",9.83,"3",3,9.83,10,655.333333333333,"[[1,2,3,4],[5,6,7,8]]",1000,0,60,10,0,0,"stable",TRUE,TRUE,"2/3","1/3",100,"A",0,10,0.01,TRUE,"[.25,.5,.75,1,1.25,1.5,1.75]",61.5
"44",1,1,"1","2016-05-10 14:05:54.300",14629143543,"state",4.42,"4",4,4.42,10,589.333333333333,"[[1,2,3,4],[5,6,7,8]]",1000,0,60,10,0,0,"stable",TRUE,TRUE,"2/3","1/3",100,"A",0,10,0.01,TRUE,"[.25,.5,.75,1,1.25,1.5,1.75]",61.5
"45",2,1,"1","2016-05-10 14:06:05.000",14629143650,"state",0.25,"1",1,0.25,0,33.3333333333333,"[[1,2,3,4],[5,6,7,8]]",1000,0,60,10,0.1,0,"stable",TRUE,TRUE,"2/3","1/3",100,"A",0,10,0.01,TRUE,"[.25,.5,.75,1,1.25,1.5,1.75]",0
"46",2,1,"1","2016-05-10 14:06:05.000",14629143650,"state",0.5,"2",2,0.5,0,55.5555555555556,"[[1,2,3,4],[5,6,7,8]]",1000,0,60,10,0.1,0,"stable",TRUE,TRUE,"2/3","1/3",100,"A",0,10,0.01,TRUE,"[.25,.5,.75,1,1.25,1.5,1.75]",0
"47",2,1,"1","2016-05-10 14:06:05.000",14629143650,"state",0.75,"3",3,0.75,0,66.6666666666667,"[[1,2,3,4],[5,6,7,8]]",1000,0,60,10,0.1,0,"stable",TRUE,TRUE,"2/3","1/3",100,"A",0,10,0.01,TRUE,"[.25,.5,.75,1,1.25,1.5,1.75]",0
"48",2,1,"1","2016-05-10 14:06:05.000",14629143650,"state",1,"4",4,1,0,66.6666666666667,"[[1,2,3,4],[5,6,7,8]]",1000,0,60,10,0.1,0,"stable",TRUE,TRUE,"2/3","1/3",100,"A",0,10,0.01,TRUE,"[.25,.5,.75,1,1.25,1.5,1.75]",0
"49",2,1,"1","2016-05-10 14:06:11.100",14629143711,"state",7.23,"1",1,2.19,1,243.333333333333,"[[1,2,3,4],[5,6,7,8]]",1000,0,60,10,0.1,0,"stable",TRUE,TRUE,"2/3","1/3",100,"A",0,10,0.01,TRUE,"[.25,.5,.75,1,1.25,1.5,1.75]",6.1
"50",2,1,"1","2016-05-10 14:06:11.100",14629143711,"state",3.45,"2",2,2.6,1,222.222222222222,"[[1,2,3,4],[5,6,7,8]]",1000,0,60,10,0.1,0,"stable",TRUE,TRUE,"2/3","1/3",100,"A",0,10,0.01,TRUE,"[.25,.5,.75,1,1.25,1.5,1.75]",6.1
"51",2,1,"1","2016-05-10 14:06:11.100",14629143711,"state",4.88,"3",3,2.75,1,176.666666666667,"[[1,2,3,4],[5,6,7,8]]",1000,0,60,10,0.1,0,"stable",TRUE,TRUE,"2/3","1/3",100,"A",0,10,0.01,TRUE,"[.25,.5,.75,1,1.25,1.5,1.75]",6.1
"52",2,1,"1","2016-05-10 14:06:11.100",14629143711,"state",1.86,"4",4,1.86,1,248,"[[1,2,3,4],[5,6,7,8]]",1000,0,60,10,0.1,0,"stable",TRUE,TRUE,"2/3","1/3",100,"A",0,10,0.01,TRUE,"[.25,.5,.75,1,1.25,1.5,1.75]",6.1
"53",2,1,"1","2016-05-10 14:06:17.300",14629143773,"state",7.23,"1",1,5.19,2,461.333333333333,"[[1,2,3,4],[5,6,7,8]]",1000,0,60,10,0.1,0,"stable",TRUE,TRUE,"2/3","1/3",100,"A",0,10,0.01,TRUE,"[.25,.5,.75,1,1.25,1.5,1.75]",12.3
"54",2,1,"1","2016-05-10 14:06:17.300",14629143773,"state",9.05,"2",2,5.6,2,366.666666666666,"[[1,2,3,4],[5,6,7,8]]",1000,0,60,10,0.1,0,"stable",TRUE,TRUE,"2/3","1/3",100,"A",0,10,0.01,TRUE,"[.25,.5,.75,1,1.25,1.5,1.75]",12.3
"55",2,1,"1","2016-05-10 14:06:17.300",14629143773,"state",4.88,"3",3,4.88,2,542.222222222222,"[[1,2,3,4],[5,6,7,8]]",1000,0,60,10,0.1,0,"stable",TRUE,TRUE,"2/3","1/3",100,"A",0,10,0.01,TRUE,"[.25,.5,.75,1,1.25,1.5,1.75]",12.3
"56",2,1,"1","2016-05-10 14:06:17.300",14629143773,"state",1.86,"4",4,1.86,2,248,"[[1,2,3,4],[5,6,7,8]]",1000,0,60,10,0.1,0,"stable",TRUE,TRUE,"2/3","1/3",100,"A",0,10,0.01,TRUE,"[.25,.5,.75,1,1.25,1.5,1.75]",12.3
"57",2,1,"1","2016-05-10 14:06:23.400",14629143834,"state",8.99,"1",1,5.99,3,532.444444444444,"[[1,2,3,4],[5,6,7,8]]",1000,0,60,10,0.1,0,"stable",TRUE,TRUE,"2/3","1/3",100,"A",0,10,0.01,TRUE,"[.25,.5,.75,1,1.25,1.5,1.75]",18.4
"58",2,1,"1","2016-05-10 14:06:23.400",14629143834,"state",9.87,"2",2,6.59999999999999,3,433.333333333333,"[[1,2,3,4],[5,6,7,8]]",1000,0,60,10,0.1,0,"stable",TRUE,TRUE,"2/3","1/3",100,"A",0,10,0.01,TRUE,"[.25,.5,.75,1,1.25,1.5,1.75]",18.4
"59",2,1,"1","2016-05-10 14:06:23.400",14629143834,"state",3.09,"3",3,3.68,3,420,"[[1,2,3,4],[5,6,7,8]]",1000,0,60,10,0.1,0,"stable",TRUE,TRUE,"2/3","1/3",100,"A",0,10,0.01,TRUE,"[.25,.5,.75,1,1.25,1.5,1.75]",18.4
"60",2,1,"1","2016-05-10 14:06:23.400",14629143834,"state",2.87,"4",4,2.87,3,382.666666666667,"[[1,2,3,4],[5,6,7,8]]",1000,0,60,10,0.1,0,"stable",TRUE,TRUE,"2/3","1/3",100,"A",0,10,0.01,TRUE,"[.25,.5,.75,1,1.25,1.5,1.75]",18.4
"61",2,1,"1","2016-05-10 14:06:29.600",14629143896,"state",4.55,"1",1,5.79,4,514.666666666666,"[[1,2,3,4],[5,6,7,8]]",1000,0,60,10,0.1,0,"stable",TRUE,TRUE,"2/3","1/3",100,"A",0,10,0.01,TRUE,"[.25,.5,.75,1,1.25,1.5,1.75]",24.6
"62",2,1,"1","2016-05-10 14:06:29.600",14629143896,"state",1.9,"2",2,6.79999999999999,4,459.999999999999,"[[1,2,3,4],[5,6,7,8]]",1000,0,60,10,0.1,0,"stable",TRUE,TRUE,"2/3","1/3",100,"A",0,10,0.01,TRUE,"[.25,.5,.75,1,1.25,1.5,1.75]",24.6
"63",2,1,"1","2016-05-10 14:06:29.600",14629143896,"state",2.79,"3",3,3.28,4,375.555555555556,"[[1,2,3,4],[5,6,7,8]]",1000,0,60,10,0.1,0,"stable",TRUE,TRUE,"2/3","1/3",100,"A",0,10,0.01,TRUE,"[.25,.5,.75,1,1.25,1.5,1.75]",24.6
"64",2,1,"1","2016-05-10 14:06:29.600",14629143896,"state",2.73,"4",4,2.73,4,364,"[[1,2,3,4],[5,6,7,8]]",1000,0,60,10,0.1,0,"stable",TRUE,TRUE,"2/3","1/3",100,"A",0,10,0.01,TRUE,"[.25,.5,.75,1,1.25,1.5,1.75]",24.6
"65",2,1,"1","2016-05-10 14:06:35.700",14629143957,"state",8.77,"1",1,4.79,5,425.777777777778,"[[1,2,3,4],[5,6,7,8]]",1000,0,60,10,0.1,0,"stable",TRUE,TRUE,"2/3","1/3",100,"A",0,10,0.01,TRUE,"[.25,.5,.75,1,1.25,1.5,1.75]",30.7
"66",2,1,"1","2016-05-10 14:06:35.700",14629143957,"state",3.42,"2",2,5.2,5,353.333333333333,"[[1,2,3,4],[5,6,7,8]]",1000,0,60,10,0.1,0,"stable",TRUE,TRUE,"2/3","1/3",100,"A",0,10,0.01,TRUE,"[.25,.5,.75,1,1.25,1.5,1.75]",30.7
"67",2,1,"1","2016-05-10 14:06:35.700",14629143957,"state",5.12,"3",3,2.08,5,264,"[[1,2,3,4],[5,6,7,8]]",1000,0,60,10,0.1,0,"stable",TRUE,TRUE,"2/3","1/3",100,"A",0,10,0.01,TRUE,"[.25,.5,.75,1,1.25,1.5,1.75]",30.7
"68",2,1,"1","2016-05-10 14:06:35.700",14629143957,"state",2.5,"4",4,3.11,5,356.666666666667,"[[1,2,3,4],[5,6,7,8]]",1000,0,60,10,0.1,0,"stable",TRUE,TRUE,"2/3","1/3",100,"A",0,10,0.01,TRUE,"[.25,.5,.75,1,1.25,1.5,1.75]",30.7
"69",2,1,"1","2016-05-10 14:06:41.900",14629144019,"state",5.64,"1",1,5.64,6,501.333333333333,"[[1,2,3,4],[5,6,7,8]]",1000,0,60,10,0.1,0,"stable",TRUE,TRUE,"2/3","1/3",100,"A",0,10,0.01,TRUE,"[.25,.5,.75,1,1.25,1.5,1.75]",36.9
"70",2,1,"1","2016-05-10 14:06:41.900",14629144019,"state",6.2,"2",2,6.2,6,413.333333333333,"[[1,2,3,4],[5,6,7,8]]",1000,0,60,10,0.1,0,"stable",TRUE,TRUE,"2/3","1/3",100,"A",0,10,0.01,TRUE,"[.25,.5,.75,1,1.25,1.5,1.75]",36.9
"71",2,1,"1","2016-05-10 14:06:41.900",14629144019,"state",1.82,"3",3,3.51,6,401.111111111111,"[[1,2,3,4],[5,6,7,8]]",1000,0,60,10,0.1,0,"stable",TRUE,TRUE,"2/3","1/3",100,"A",0,10,0.01,TRUE,"[.25,.5,.75,1,1.25,1.5,1.75]",36.9
"72",2,1,"1","2016-05-10 14:06:41.900",14629144019,"state",9.09,"4",4,3.33,6,430.666666666667,"[[1,2,3,4],[5,6,7,8]]",1000,0,60,10,0.1,0,"stable",TRUE,TRUE,"2/3","1/3",100,"A",0,10,0.01,TRUE,"[.25,.5,.75,1,1.25,1.5,1.75]",36.9
"73",2,1,"1","2016-05-10 14:06:48.000",14629144080,"state",2.35,"1",1,5.48,7,487.111111111111,"[[1,2,3,4],[5,6,7,8]]",1000,0,60,10,0.1,0,"stable",TRUE,TRUE,"2/3","1/3",100,"A",0,10,0.01,TRUE,"[.25,.5,.75,1,1.25,1.5,1.75]",43
"74",2,1,"1","2016-05-10 14:06:48.000",14629144080,"state",4.67,"2",2,5.64,7,382.666666666667,"[[1,2,3,4],[5,6,7,8]]",1000,0,60,10,0.1,0,"stable",TRUE,TRUE,"2/3","1/3",100,"A",0,10,0.01,TRUE,"[.25,.5,.75,1,1.25,1.5,1.75]",43
"75",2,1,"1","2016-05-10 14:06:48.000",14629144080,"state",8.14,"3",3,3.61,7,468,"[[1,2,3,4],[5,6,7,8]]",1000,0,60,10,0.1,0,"stable",TRUE,TRUE,"2/3","1/3",100,"A",0,10,0.01,TRUE,"[.25,.5,.75,1,1.25,1.5,1.75]",43
"76",2,1,"1","2016-05-10 14:06:48.000",14629144080,"state",9.3,"4",4,4.22,7,457.777777777778,"[[1,2,3,4],[5,6,7,8]]",1000,0,60,10,0.1,0,"stable",TRUE,TRUE,"2/3","1/3",100,"A",0,10,0.01,TRUE,"[.25,.5,.75,1,1.25,1.5,1.75]",43
"77",2,1,"1","2016-05-10 14:06:54.100",14629144141,"state",2.07,"1",1,2.95,8,393.333333333333,"[[1,2,3,4],[5,6,7,8]]",1000,0,60,10,0.1,0,"stable",TRUE,TRUE,"2/3","1/3",100,"A",0,10,0.01,TRUE,"[.25,.5,.75,1,1.25,1.5,1.75]",49.1
"78",2,1,"1","2016-05-10 14:06:54.100",14629144141,"state",2.39,"2",2,6.32,8,570.666666666667,"[[1,2,3,4],[5,6,7,8]]",1000,0,60,10,0.1,0,"stable",TRUE,TRUE,"2/3","1/3",100,"A",0,10,0.01,TRUE,"[.25,.5,.75,1,1.25,1.5,1.75]",49.1
"79",2,1,"1","2016-05-10 14:06:54.100",14629144141,"state",9.68,"3",3,4.81,8,523.333333333333,"[[1,2,3,4],[5,6,7,8]]",1000,0,60,10,0.1,0,"stable",TRUE,TRUE,"2/3","1/3",100,"A",0,10,0.01,TRUE,"[.25,.5,.75,1,1.25,1.5,1.75]",49.1
"80",2,1,"1","2016-05-10 14:06:54.100",14629144141,"state",7.15,"4",4,6.61999999999999,8,434.666666666666,"[[1,2,3,4],[5,6,7,8]]",1000,0,60,10,0.1,0,"stable",TRUE,TRUE,"2/3","1/3",100,"A",0,10,0.01,TRUE,"[.25,.5,.75,1,1.25,1.5,1.75]",49.1
"81",2,1,"1","2016-05-10 14:07:00.300",14629144203,"state",0.7,"1",1,3.3,9,440,"[[1,2,3,4],[5,6,7,8]]",1000,0,60,10,0.1,0,"stable",TRUE,TRUE,"2/3","1/3",100,"A",0,10,0.01,TRUE,"[.25,.5,.75,1,1.25,1.5,1.75]",55.3
"82",2,1,"1","2016-05-10 14:07:00.300",14629144203,"state",7.99,"2",2,6.12,9,535.111111111111,"[[1,2,3,4],[5,6,7,8]]",1000,0,60,10,0.1,0,"stable",TRUE,TRUE,"2/3","1/3",100,"A",0,10,0.01,TRUE,"[.25,.5,.75,1,1.25,1.5,1.75]",55.3
"83",2,1,"1","2016-05-10 14:07:00.300",14629144203,"state",1.23,"3",3,6.20999999999999,9,420.666666666666,"[[1,2,3,4],[5,6,7,8]]",1000,0,60,10,0.1,0,"stable",TRUE,TRUE,"2/3","1/3",100,"A",0,10,0.01,TRUE,"[.25,.5,.75,1,1.25,1.5,1.75]",55.3
"84",2,1,"1","2016-05-10 14:07:00.300",14629144203,"state",0.55,"4",4,4.42,9,502.222222222222,"[[1,2,3,4],[5,6,7,8]]",1000,0,60,10,0.1,0,"stable",TRUE,TRUE,"2/3","1/3",100,"A",0,10,0.01,TRUE,"[.25,.5,.75,1,1.25,1.5,1.75]",55.3
"85",2,1,"1","2016-05-10 14:07:06.500",14629144265,"state",3.85,"1",1,4.1,10,546.666666666667,"[[1,2,3,4],[5,6,7,8]]",1000,0,60,10,0.1,0,"stable",TRUE,TRUE,"2/3","1/3",100,"A",0,10,0.01,TRUE,"[.25,.5,.75,1,1.25,1.5,1.75]",61.5
"86",2,1,"1","2016-05-10 14:07:06.500",14629144265,"state",0.17,"2",2,4.72000000000001,10,428.444444444445,"[[1,2,3,4],[5,6,7,8]]",1000,0,60,10,0.1,0,"stable",TRUE,TRUE,"2/3","1/3",100,"A",0,10,0.01,TRUE,"[.25,.5,.75,1,1.25,1.5,1.75]",61.5
"87",2,1,"1","2016-05-10 14:07:06.500",14629144265,"state",3.51,"3",3,4.61,10,523.333333333333,"[[1,2,3,4],[5,6,7,8]]",1000,0,60,10,0.1,0,"stable",TRUE,TRUE,"2/3","1/3",100,"A",0,10,0.01,TRUE,"[.25,.5,.75,1,1.25,1.5,1.75]",61.5
"88",2,1,"1","2016-05-10 14:07:06.500",14629144265,"state",7.1,"4",4,5.22,10,341.333333333333,"[[1,2,3,4],[5,6,7,8]]",1000,0,60,10,0.1,0,"stable",TRUE,TRUE,"2/3","1/3",100,"A",0,10,0.01,TRUE,"[.25,.5,.75,1,1.25,1.5,1.75]",61.5
"89",3,1,"1","2016-05-10 14:07:17.100",14629144371,"state",0.25,"1",1,0.25,0,33.3333333333333,"[[1,2,3,4],[5,6,7,8]]",1000,0,60,10,0.3,0,"stable",FALSE,TRUE,"2/3","1/3",100,"A",0,10,0.01,TRUE,"[.25,.5,.75,1,1.25,1.5,1.75]",0
"90",3,1,"1","2016-05-10 14:07:17.100",14629144371,"state",0.5,"2",2,0.5,0,55.5555555555556,"[[1,2,3,4],[5,6,7,8]]",1000,0,60,10,0.3,0,"stable",FALSE,TRUE,"2/3","1/3",100,"A",0,10,0.01,TRUE,"[.25,.5,.75,1,1.25,1.5,1.75]",0
"91",3,1,"1","2016-05-10 14:07:17.100",14629144371,"state",0.75,"3",3,0.75,0,66.6666666666667,"[[1,2,3,4],[5,6,7,8]]",1000,0,60,10,0.3,0,"stable",FALSE,TRUE,"2/3","1/3",100,"A",0,10,0.01,TRUE,"[.25,.5,.75,1,1.25,1.5,1.75]",0
"92",3,1,"1","2016-05-10 14:07:17.100",14629144371,"state",1,"4",4,1,0,66.6666666666667,"[[1,2,3,4],[5,6,7,8]]",1000,0,60,10,0.3,0,"stable",FALSE,TRUE,"2/3","1/3",100,"A",0,10,0.01,TRUE,"[.25,.5,.75,1,1.25,1.5,1.75]",0
"93",3,1,"1","2016-05-10 14:07:23.200",14629144432,"state",0.25,"1",1,0.25,1,33.3333333333333,"[[1,2,3,4],[5,6,7,8]]",1000,0,60,10,0.3,0,"stable",FALSE,TRUE,"2/3","1/3",100,"A",0,10,0.01,TRUE,"[.25,.5,.75,1,1.25,1.5,1.75]",6.1
"94",3,1,"1","2016-05-10 14:07:23.200",14629144432,"state",9.94,"2",2,8.35,1,536.666666666667,"[[1,2,3,4],[5,6,7,8]]",1000,0,60,10,0.3,0,"stable",FALSE,TRUE,"2/3","1/3",100,"A",0,10,0.01,TRUE,"[.25,.5,.75,1,1.25,1.5,1.75]",6.1
"95",3,1,"1","2016-05-10 14:07:23.200",14629144432,"state",0.75,"3",3,0.75,1,83.3333333333333,"[[1,2,3,4],[5,6,7,8]]",1000,0,60,10,0.3,0,"stable",FALSE,TRUE,"2/3","1/3",100,"A",0,10,0.01,TRUE,"[.25,.5,.75,1,1.25,1.5,1.75]",6.1
"96",3,1,"1","2016-05-10 14:07:23.200",14629144432,"state",1,"4",4,1,1,88.8888888888889,"[[1,2,3,4],[5,6,7,8]]",1000,0,60,10,0.3,0,"stable",FALSE,TRUE,"2/3","1/3",100,"A",0,10,0.01,TRUE,"[.25,.5,.75,1,1.25,1.5,1.75]",6.1
"97",3,1,"1","2016-05-10 14:07:29.400",14629144494,"state",0.65,"1",1,0.65,2,86.6666666666667,"[[1,2,3,4],[5,6,7,8]]",1000,0,60,10,0.3,0,"stable",FALSE,TRUE,"2/3","1/3",100,"A",0,10,0.01,TRUE,"[.25,.5,.75,1,1.25,1.5,1.75]",12.3
"98",3,1,"1","2016-05-10 14:07:29.400",14629144494,"state",1.84,"2",2,6.77,2,471.333333333333,"[[1,2,3,4],[5,6,7,8]]",1000,0,60,10,0.3,0,"stable",FALSE,TRUE,"2/3","1/3",100,"A",0,10,0.01,TRUE,"[.25,.5,.75,1,1.25,1.5,1.75]",12.3
"99",3,1,"1","2016-05-10 14:07:29.400",14629144494,"state",2.83,"3",3,3.15,2,383.333333333333,"[[1,2,3,4],[5,6,7,8]]",1000,0,60,10,0.3,0,"stable",FALSE,TRUE,"2/3","1/3",100,"A",0,10,0.01,TRUE,"[.25,.5,.75,1,1.25,1.5,1.75]",12.3
"100",3,1,"1","2016-05-10 14:07:29.400",14629144494,"state",4.04,"4",4,4.04,2,355.555555555555,"[[1,2,3,4],[5,6,7,8]]",1000,0,60,10,0.3,0,"stable",FALSE,TRUE,"2/3","1/3",100,"A",0,10,0.01,TRUE,"[.25,.5,.75,1,1.25,1.5,1.75]",12.3
"101",3,1,"1","2016-05-10 14:07:35.500",14629144555,"state",8.63,"1",1,7.58,3,505.333333333333,"[[1,2,3,4],[5,6,7,8]]",1000,0,60,10,0.3,0,"stable",FALSE,TRUE,"2/3","1/3",100,"A",0,10,0.01,TRUE,"[.25,.5,.75,1,1.25,1.5,1.75]",18.4
"102",3,1,"1","2016-05-10 14:07:35.500",14629144555,"state",6.07,"2",2,4.86,3,506.666666666667,"[[1,2,3,4],[5,6,7,8]]",1000,0,60,10,0.3,0,"stable",FALSE,TRUE,"2/3","1/3",100,"A",0,10,0.01,TRUE,"[.25,.5,.75,1,1.25,1.5,1.75]",18.4
"103",3,1,"1","2016-05-10 14:07:35.500",14629144555,"state",1.46,"3",3,1.86,3,288,"[[1,2,3,4],[5,6,7,8]]",1000,0,60,10,0.3,0,"stable",FALSE,TRUE,"2/3","1/3",100,"A",0,10,0.01,TRUE,"[.25,.5,.75,1,1.25,1.5,1.75]",18.4
"104",3,1,"1","2016-05-10 14:07:35.500",14629144555,"state",0.68,"4",4,4.75,3,448.888888888889,"[[1,2,3,4],[5,6,7,8]]",1000,0,60,10,0.3,0,"stable",FALSE,TRUE,"2/3","1/3",100,"A",0,10,0.01,TRUE,"[.25,.5,.75,1,1.25,1.5,1.75]",18.4
"105",3,1,"1","2016-05-10 14:07:41.600",14629144616,"state",7.1,"1",1,5.42,4,481.777777777778,"[[1,2,3,4],[5,6,7,8]]",1000,0,60,10,0.3,0,"stable",FALSE,TRUE,"2/3","1/3",100,"A",0,10,0.01,TRUE,"[.25,.5,.75,1,1.25,1.5,1.75]",24.5
"106",3,1,"1","2016-05-10 14:07:41.600",14629144616,"state",6,"2",2,4.26,4,440,"[[1,2,3,4],[5,6,7,8]]",1000,0,60,10,0.3,0,"stable",FALSE,TRUE,"2/3","1/3",100,"A",0,10,0.01,TRUE,"[.25,.5,.75,1,1.25,1.5,1.75]",24.5
"107",3,1,"1","2016-05-10 14:07:41.600",14629144616,"state",2.3,"3",3,2.3,4,306.666666666667,"[[1,2,3,4],[5,6,7,8]]",1000,0,60,10,0.3,0,"stable",FALSE,TRUE,"2/3","1/3",100,"A",0,10,0.01,TRUE,"[.25,.5,.75,1,1.25,1.5,1.75]",24.5
"108",3,1,"1","2016-05-10 14:07:41.600",14629144616,"state",4.44,"4",4,7.75,4,536.666666666667,"[[1,2,3,4],[5,6,7,8]]",1000,0,60,10,0.3,0,"stable",FALSE,TRUE,"2/3","1/3",100,"A",0,10,0.01,TRUE,"[.25,.5,.75,1,1.25,1.5,1.75]",24.5
"109",3,1,"1","2016-05-10 14:07:47.800",14629144678,"state",8.37,"1",1,8.37,5,558,"[[1,2,3,4],[5,6,7,8]]",1000,0,60,10,0.3,0,"stable",FALSE,TRUE,"2/3","1/3",100,"A",0,10,0.01,TRUE,"[.25,.5,.75,1,1.25,1.5,1.75]",30.7
"110",3,1,"1","2016-05-10 14:07:47.800",14629144678,"state",9.64,"2",2,5.8,5,488.888888888889,"[[1,2,3,4],[5,6,7,8]]",1000,0,60,10,0.3,0,"stable",FALSE,TRUE,"2/3","1/3",100,"A",0,10,0.01,TRUE,"[.25,.5,.75,1,1.25,1.5,1.75]",30.7
"111",3,1,"1","2016-05-10 14:07:47.800",14629144678,"state",9.49,"3",3,4.7,5,586.666666666667,"[[1,2,3,4],[5,6,7,8]]",1000,0,60,10,0.3,0,"stable",FALSE,TRUE,"2/3","1/3",100,"A",0,10,0.01,TRUE,"[.25,.5,.75,1,1.25,1.5,1.75]",30.7
"112",3,1,"1","2016-05-10 14:07:47.800",14629144678,"state",5.28,"4",4,5.28,5,586.666666666667,"[[1,2,3,4],[5,6,7,8]]",1000,0,60,10,0.3,0,"stable",FALSE,TRUE,"2/3","1/3",100,"A",0,10,0.01,TRUE,"[.25,.5,.75,1,1.25,1.5,1.75]",30.7
"113",3,1,"1","2016-05-10 14:07:53.900",14629144739,"state",8.69,"1",1,4.61,6,614.666666666667,"[[1,2,3,4],[5,6,7,8]]",1000,0,60,10,0.3,0,"stable",FALSE,TRUE,"2/3","1/3",100,"A",0,10,0.01,TRUE,"[.25,.5,.75,1,1.25,1.5,1.75]",36.8
"114",3,1,"1","2016-05-10 14:07:53.900",14629144739,"state",1.95,"2",2,4.8,6,453.333333333333,"[[1,2,3,4],[5,6,7,8]]",1000,0,60,10,0.3,0,"stable",FALSE,TRUE,"2/3","1/3",100,"A",0,10,0.01,TRUE,"[.25,.5,.75,1,1.25,1.5,1.75]",36.8
"115",3,1,"1","2016-05-10 14:07:53.900",14629144739,"state",7.29,"3",3,5.39,6,565.555555555556,"[[1,2,3,4],[5,6,7,8]]",1000,0,60,10,0.3,0,"stable",FALSE,TRUE,"2/3","1/3",100,"A",0,10,0.01,TRUE,"[.25,.5,.75,1,1.25,1.5,1.75]",36.8
"116",3,1,"1","2016-05-10 14:07:53.900",14629144739,"state",0.38,"4",4,6.62,6,461.333333333333,"[[1,2,3,4],[5,6,7,8]]",1000,0,60,10,0.3,0,"stable",FALSE,TRUE,"2/3","1/3",100,"A",0,10,0.01,TRUE,"[.25,.5,.75,1,1.25,1.5,1.75]",36.8
"117",3,1,"1","2016-05-10 14:08:00.100",14629144801,"state",6.55,"1",1,6.55,7,436.666666666667,"[[1,2,3,4],[5,6,7,8]]",1000,0,60,10,0.3,0,"stable",FALSE,TRUE,"2/3","1/3",100,"A",0,10,0.01,TRUE,"[.25,.5,.75,1,1.25,1.5,1.75]",43
"118",3,1,"1","2016-05-10 14:08:00.100",14629144801,"state",1.86,"2",2,1.86,7,206.666666666667,"[[1,2,3,4],[5,6,7,8]]",1000,0,60,10,0.3,0,"stable",FALSE,TRUE,"2/3","1/3",100,"A",0,10,0.01,TRUE,"[.25,.5,.75,1,1.25,1.5,1.75]",43
"119",3,1,"1","2016-05-10 14:08:00.100",14629144801,"state",1.42,"3",3,5.19,7,488,"[[1,2,3,4],[5,6,7,8]]",1000,0,60,10,0.3,0,"stable",FALSE,TRUE,"2/3","1/3",100,"A",0,10,0.01,TRUE,"[.25,.5,.75,1,1.25,1.5,1.75]",43
"120",3,1,"1","2016-05-10 14:08:00.100",14629144801,"state",5.98,"4",4,1.28,7,130.666666666667,"[[1,2,3,4],[5,6,7,8]]",1000,0,60,10,0.3,0,"stable",FALSE,TRUE,"2/3","1/3",100,"A",0,10,0.01,TRUE,"[.25,.5,.75,1,1.25,1.5,1.75]",43
"121",3,1,"1","2016-05-10 14:08:06.200",14629144862,"state",3.11,"1",1,5.68,8,378.666666666667,"[[1,2,3,4],[5,6,7,8]]",1000,0,60,10,0.3,0,"stable",FALSE,TRUE,"2/3","1/3",100,"A",0,10,0.01,TRUE,"[.25,.5,.75,1,1.25,1.5,1.75]",49.1
"122",3,1,"1","2016-05-10 14:08:06.200",14629144862,"state",6.74,"2",2,3.2,8,386.666666666667,"[[1,2,3,4],[5,6,7,8]]",1000,0,60,10,0.3,0,"stable",FALSE,TRUE,"2/3","1/3",100,"A",0,10,0.01,TRUE,"[.25,.5,.75,1,1.25,1.5,1.75]",49.1
"123",3,1,"1","2016-05-10 14:08:06.200",14629144862,"state",6,"3",3,5.19,8,434.666666666667,"[[1,2,3,4],[5,6,7,8]]",1000,0,60,10,0.3,0,"stable",FALSE,TRUE,"2/3","1/3",100,"A",0,10,0.01,TRUE,"[.25,.5,.75,1,1.25,1.5,1.75]",49.1
"124",3,1,"1","2016-05-10 14:08:06.200",14629144862,"state",8.86,"4",4,4.91,8,512.222222222222,"[[1,2,3,4],[5,6,7,8]]",1000,0,60,10,0.3,0,"stable",FALSE,TRUE,"2/3","1/3",100,"A",0,10,0.01,TRUE,"[.25,.5,.75,1,1.25,1.5,1.75]",49.1
"125",3,1,"1","2016-05-10 14:08:12.400",14629144924,"state",4.42,"1",1,5.84,9,648.888888888889,"[[1,2,3,4],[5,6,7,8]]",1000,0,60,10,0.3,0,"stable",FALSE,TRUE,"2/3","1/3",100,"A",0,10,0.01,TRUE,"[.25,.5,.75,1,1.25,1.5,1.75]",55.3
"126",3,1,"1","2016-05-10 14:08:12.400",14629144924,"state",7.44,"2",2,7.44,9,661.333333333333,"[[1,2,3,4],[5,6,7,8]]",1000,0,60,10,0.3,0,"stable",FALSE,TRUE,"2/3","1/3",100,"A",0,10,0.01,TRUE,"[.25,.5,.75,1,1.25,1.5,1.75]",55.3
"127",3,1,"1","2016-05-10 14:08:12.400",14629144924,"state",7.61,"3",3,7.61,9,507.333333333333,"[[1,2,3,4],[5,6,7,8]]",1000,0,60,10,0.3,0,"stable",FALSE,TRUE,"2/3","1/3",100,"A",0,10,0.01,TRUE,"[.25,.5,.75,1,1.25,1.5,1.75]",55.3
"128",3,1,"1","2016-05-10 14:08:12.400",14629144924,"state",7.29,"4",4,4.02,9,496,"[[1,2,3,4],[5,6,7,8]]",1000,0,60,10,0.3,0,"stable",FALSE,TRUE,"2/3","1/3",100,"A",0,10,0.01,TRUE,"[.25,.5,.75,1,1.25,1.5,1.75]",55.3
"129",3,1,"1","2016-05-10 14:08:18.500",14629144985,"state",8.94,"1",1,4.57,10,609.333333333333,"[[1,2,3,4],[5,6,7,8]]",1000,0,60,10,0.3,0,"stable",FALSE,TRUE,"2/3","1/3",100,"A",0,10,0.01,TRUE,"[.25,.5,.75,1,1.25,1.5,1.75]",61.4
"130",3,1,"1","2016-05-10 14:08:18.500",14629144985,"state",4.23,"2",2,8.57,10,591.333333333333,"[[1,2,3,4],[5,6,7,8]]",1000,0,60,10,0.3,0,"stable",FALSE,TRUE,"2/3","1/3",100,"A",0,10,0.01,TRUE,"[.25,.5,.75,1,1.25,1.5,1.75]",61.4
"131",3,1,"1","2016-05-10 14:08:18.500",14629144985,"state",3.62,"3",3,4.74,10,560,"[[1,2,3,4],[5,6,7,8]]",1000,0,60,10,0.3,0,"stable",FALSE,TRUE,"2/3","1/3",100,"A",0,10,0.01,TRUE,"[.25,.5,.75,1,1.25,1.5,1.75]",61.4
"132",3,1,"1","2016-05-10 14:08:18.500",14629144985,"state",6.02,"4",4,6.02,10,535.111111111111,"[[1,2,3,4],[5,6,7,8]]",1000,0,60,10,0.3,0,"stable",FALSE,TRUE,"2/3","1/3",100,"A",0,10,0.01,TRUE,"[.25,.5,.75,1,1.25,1.5,1.75]",61.4
"133",4,1,"1","2016-05-10 14:08:29.100",14629145091,"state",0.25,"1",1,0.25,0,33.3333333333333,"[[1,2,3,4],[5,6,7,8]]",1000,0,60,10,0.5,0,"stable",FALSE,TRUE,"2/3","1/3",100,"A",0,10,0.01,TRUE,"[.25,.5,.75,1,1.25,1.5,1.75]",0
"134",4,1,"1","2016-05-10 14:08:29.100",14629145091,"state",0.5,"2",2,0.5,0,55.5555555555556,"[[1,2,3,4],[5,6,7,8]]",1000,0,60,10,0.5,0,"stable",FALSE,TRUE,"2/3","1/3",100,"A",0,10,0.01,TRUE,"[.25,.5,.75,1,1.25,1.5,1.75]",0
"135",4,1,"1","2016-05-10 14:08:29.100",14629145091,"state",0.75,"3",3,0.75,0,66.6666666666667,"[[1,2,3,4],[5,6,7,8]]",1000,0,60,10,0.5,0,"stable",FALSE,TRUE,"2/3","1/3",100,"A",0,10,0.01,TRUE,"[.25,.5,.75,1,1.25,1.5,1.75]",0
"136",4,1,"1","2016-05-10 14:08:29.100",14629145091,"state",1,"4",4,1,0,66.6666666666667,"[[1,2,3,4],[5,6,7,8]]",1000,0,60,10,0.5,0,"stable",FALSE,TRUE,"2/3","1/3",100,"A",0,10,0.01,TRUE,"[.25,.5,.75,1,1.25,1.5,1.75]",0
"137",4,1,"1","2016-05-10 14:08:35.200",14629145152,"state",8.08,"1",1,5.4,1,360,"[[1,2,3,4],[5,6,7,8]]",1000,0,60,10,0.5,0,"stable",FALSE,TRUE,"2/3","1/3",100,"A",0,10,0.01,TRUE,"[.25,.5,.75,1,1.25,1.5,1.75]",6.1
"138",4,1,"1","2016-05-10 14:08:35.200",14629145152,"state",2.64,"2",2,2.81,1,367.777777777778,"[[1,2,3,4],[5,6,7,8]]",1000,0,60,10,0.5,0,"stable",FALSE,TRUE,"2/3","1/3",100,"A",0,10,0.01,TRUE,"[.25,.5,.75,1,1.25,1.5,1.75]",6.1
"139",4,1,"1","2016-05-10 14:08:35.200",14629145152,"state",2.83,"3",3,1.11,1,81.3333333333333,"[[1,2,3,4],[5,6,7,8]]",1000,0,60,10,0.5,0,"stable",FALSE,TRUE,"2/3","1/3",100,"A",0,10,0.01,TRUE,"[.25,.5,.75,1,1.25,1.5,1.75]",6.1
"140",4,1,"1","2016-05-10 14:08:35.200",14629145152,"state",5.65,"4",4,5.65,1,476.444444444444,"[[1,2,3,4],[5,6,7,8]]",1000,0,60,10,0.5,0,"stable",FALSE,TRUE,"2/3","1/3",100,"A",0,10,0.01,TRUE,"[.25,.5,.75,1,1.25,1.5,1.75]",6.1
"141",4,1,"1","2016-05-10 14:08:41.300",14629145213,"state",2.5,"1",1,2.5,2,333.333333333333,"[[1,2,3,4],[5,6,7,8]]",1000,0,60,10,0.5,0,"stable",FALSE,TRUE,"2/3","1/3",100,"A",0,10,0.01,TRUE,"[.25,.5,.75,1,1.25,1.5,1.75]",12.2
"142",4,1,"1","2016-05-10 14:08:41.300",14629145213,"state",3.43,"2",2,4.48,2,332,"[[1,2,3,4],[5,6,7,8]]",1000,0,60,10,0.5,0,"stable",FALSE,TRUE,"2/3","1/3",100,"A",0,10,0.01,TRUE,"[.25,.5,.75,1,1.25,1.5,1.75]",12.2
"143",4,1,"1","2016-05-10 14:08:41.300",14629145213,"state",1.88,"3",3,2.83,2,370,"[[1,2,3,4],[5,6,7,8]]",1000,0,60,10,0.5,0,"stable",FALSE,TRUE,"2/3","1/3",100,"A",0,10,0.01,TRUE,"[.25,.5,.75,1,1.25,1.5,1.75]",12.2
"144",4,1,"1","2016-05-10 14:08:41.300",14629145213,"state",9.01,"4",4,4.29,2,336.888888888889,"[[1,2,3,4],[5,6,7,8]]",1000,0,60,10,0.5,0,"stable",FALSE,TRUE,"2/3","1/3",100,"A",0,10,0.01,TRUE,"[.25,.5,.75,1,1.25,1.5,1.75]",12.2
"145",4,1,"1","2016-05-10 14:08:47.400",14629145274,"state",8.24,"1",1,6.26,3,417.333333333333,"[[1,2,3,4],[5,6,7,8]]",1000,0,60,10,0.5,0,"stable",FALSE,TRUE,"2/3","1/3",100,"A",0,10,0.01,TRUE,"[.25,.5,.75,1,1.25,1.5,1.75]",18.3
"146",4,1,"1","2016-05-10 14:08:47.400",14629145274,"state",5.09,"2",2,5.68,3,549.333333333333,"[[1,2,3,4],[5,6,7,8]]",1000,0,60,10,0.5,0,"stable",FALSE,TRUE,"2/3","1/3",100,"A",0,10,0.01,TRUE,"[.25,.5,.75,1,1.25,1.5,1.75]",18.3
"147",4,1,"1","2016-05-10 14:08:47.400",14629145274,"state",9.77,"3",3,4.69,3,465.555555555556,"[[1,2,3,4],[5,6,7,8]]",1000,0,60,10,0.5,0,"stable",FALSE,TRUE,"2/3","1/3",100,"A",0,10,0.01,TRUE,"[.25,.5,.75,1,1.25,1.5,1.75]",18.3
"148",4,1,"1","2016-05-10 14:08:47.400",14629145274,"state",4.74,"4",4,1.24,3,98.6666666666667,"[[1,2,3,4],[5,6,7,8]]",1000,0,60,10,0.5,0,"stable",FALSE,TRUE,"2/3","1/3",100,"A",0,10,0.01,TRUE,"[.25,.5,.75,1,1.25,1.5,1.75]",18.3
"149",4,1,"1","2016-05-10 14:08:53.600",14629145336,"state",8.14,"1",1,6.76,4,751.111111111111,"[[1,2,3,4],[5,6,7,8]]",1000,0,60,10,0.5,0,"stable",FALSE,TRUE,"2/3","1/3",100,"A",0,10,0.01,TRUE,"[.25,.5,.75,1,1.25,1.5,1.75]",24.5
"150",4,1,"1","2016-05-10 14:08:53.600",14629145336,"state",7.89,"2",2,7.89,4,526,"[[1,2,3,4],[5,6,7,8]]",1000,0,60,10,0.5,0,"stable",FALSE,TRUE,"2/3","1/3",100,"A",0,10,0.01,TRUE,"[.25,.5,.75,1,1.25,1.5,1.75]",24.5
"151",4,1,"1","2016-05-10 14:08:53.600",14629145336,"state",7.63,"3",3,7.63,4,678.222222222222,"[[1,2,3,4],[5,6,7,8]]",1000,0,60,10,0.5,0,"stable",FALSE,TRUE,"2/3","1/3",100,"A",0,10,0.01,TRUE,"[.25,.5,.75,1,1.25,1.5,1.75]",24.5
"152",4,1,"1","2016-05-10 14:08:53.600",14629145336,"state",2.13,"4",4,2.13,4,288,"[[1,2,3,4],[5,6,7,8]]",1000,0,60,10,0.5,0,"stable",FALSE,TRUE,"2/3","1/3",100,"A",0,10,0.01,TRUE,"[.25,.5,.75,1,1.25,1.5,1.75]",24.5
"153",4,1,"1","2016-05-10 14:08:59.700",14629145397,"state",7.34,"1",1,6.22,5,414.666666666667,"[[1,2,3,4],[5,6,7,8]]",1000,0,60,10,0.5,0,"stable",FALSE,TRUE,"2/3","1/3",100,"A",0,10,0.01,TRUE,"[.25,.5,.75,1,1.25,1.5,1.75]",30.6
"154",4,1,"1","2016-05-10 14:08:59.700",14629145397,"state",5.45,"2",2,5.31,5,534.444444444444,"[[1,2,3,4],[5,6,7,8]]",1000,0,60,10,0.5,0,"stable",FALSE,TRUE,"2/3","1/3",100,"A",0,10,0.01,TRUE,"[.25,.5,.75,1,1.25,1.5,1.75]",30.6
"155",4,1,"1","2016-05-10 14:08:59.700",14629145397,"state",0.3,"3",3,4.1,5,613.333333333333,"[[1,2,3,4],[5,6,7,8]]",1000,0,60,10,0.5,0,"stable",FALSE,TRUE,"2/3","1/3",100,"A",0,10,0.01,TRUE,"[.25,.5,.75,1,1.25,1.5,1.75]",30.6
"156",4,1,"1","2016-05-10 14:08:59.700",14629145397,"state",7.23,"4",4,6.72,5,552.888888888889,"[[1,2,3,4],[5,6,7,8]]",1000,0,60,10,0.5,0,"stable",FALSE,TRUE,"2/3","1/3",100,"A",0,10,0.01,TRUE,"[.25,.5,.75,1,1.25,1.5,1.75]",30.6
"157",4,1,"1","2016-05-10 14:09:05.900",14629145459,"state",6.49,"1",1,5.08,6,338.666666666667,"[[1,2,3,4],[5,6,7,8]]",1000,0,60,10,0.5,0,"stable",FALSE,TRUE,"2/3","1/3",100,"A",0,10,0.01,TRUE,"[.25,.5,.75,1,1.25,1.5,1.75]",36.8
"158",4,1,"1","2016-05-10 14:09:05.900",14629145459,"state",3.98,"2",2,3.98,6,494.444444444444,"[[1,2,3,4],[5,6,7,8]]",1000,0,60,10,0.5,0,"stable",FALSE,TRUE,"2/3","1/3",100,"A",0,10,0.01,TRUE,"[.25,.5,.75,1,1.25,1.5,1.75]",36.8
"159",4,1,"1","2016-05-10 14:09:05.900",14629145459,"state",4.63,"3",3,4.63,6,411.555555555556,"[[1,2,3,4],[5,6,7,8]]",1000,0,60,10,0.5,0,"stable",FALSE,TRUE,"2/3","1/3",100,"A",0,10,0.01,TRUE,"[.25,.5,.75,1,1.25,1.5,1.75]",36.8
"160",4,1,"1","2016-05-10 14:09:05.900",14629145459,"state",2.16,"4",4,2.59,6,412,"[[1,2,3,4],[5,6,7,8]]",1000,0,60,10,0.5,0,"stable",FALSE,TRUE,"2/3","1/3",100,"A",0,10,0.01,TRUE,"[.25,.5,.75,1,1.25,1.5,1.75]",36.8
"161",4,1,"1","2016-05-10 14:09:12.000",14629145520,"state",0.23,"1",1,0.23,7,30.6666666666667,"[[1,2,3,4],[5,6,7,8]]",1000,0,60,10,0.5,0,"stable",FALSE,TRUE,"2/3","1/3",100,"A",0,10,0.01,TRUE,"[.25,.5,.75,1,1.25,1.5,1.75]",42.9
"162",4,1,"1","2016-05-10 14:09:12.000",14629145520,"state",5.29,"2",2,5.29,7,470.222222222222,"[[1,2,3,4],[5,6,7,8]]",1000,0,60,10,0.5,0,"stable",FALSE,TRUE,"2/3","1/3",100,"A",0,10,0.01,TRUE,"[.25,.5,.75,1,1.25,1.5,1.75]",42.9
"163",4,1,"1","2016-05-10 14:09:12.000",14629145520,"state",8.69,"3",3,2.34,7,204.444444444444,"[[1,2,3,4],[5,6,7,8]]",1000,0,60,10,0.5,0,"stable",FALSE,TRUE,"2/3","1/3",100,"A",0,10,0.01,TRUE,"[.25,.5,.75,1,1.25,1.5,1.75]",42.9
"164",4,1,"1","2016-05-10 14:09:12.000",14629145520,"state",6.68,"4",4,6.68,7,445.333333333333,"[[1,2,3,4],[5,6,7,8]]",1000,0,60,10,0.5,0,"stable",FALSE,TRUE,"2/3","1/3",100,"A",0,10,0.01,TRUE,"[.25,.5,.75,1,1.25,1.5,1.75]",42.9
"165",4,1,"1","2016-05-10 14:09:18.100",14629145581,"state",4.78,"1",1,3.4,8,453.333333333333,"[[1,2,3,4],[5,6,7,8]]",1000,0,60,10,0.5,0,"stable",FALSE,TRUE,"2/3","1/3",100,"A",0,10,0.01,TRUE,"[.25,.5,.75,1,1.25,1.5,1.75]",49
"166",4,1,"1","2016-05-10 14:09:18.100",14629145581,"state",9.07,"2",2,7.03,8,435.333333333333,"[[1,2,3,4],[5,6,7,8]]",1000,0,60,10,0.5,0,"stable",FALSE,TRUE,"2/3","1/3",100,"A",0,10,0.01,TRUE,"[.25,.5,.75,1,1.25,1.5,1.75]",49
"167",4,1,"1","2016-05-10 14:09:18.100",14629145581,"state",6.02,"3",3,6.02,8,535.111111111111,"[[1,2,3,4],[5,6,7,8]]",1000,0,60,10,0.5,0,"stable",FALSE,TRUE,"2/3","1/3",100,"A",0,10,0.01,TRUE,"[.25,.5,.75,1,1.25,1.5,1.75]",49
"168",4,1,"1","2016-05-10 14:09:18.100",14629145581,"state",4.55,"4",4,4.55,8,505.555555555556,"[[1,2,3,4],[5,6,7,8]]",1000,0,60,10,0.5,0,"stable",FALSE,TRUE,"2/3","1/3",100,"A",0,10,0.01,TRUE,"[.25,.5,.75,1,1.25,1.5,1.75]",49
"169",4,1,"1","2016-05-10 14:09:24.300",14629145643,"state",0.17,"1",1,8.23,9,731.555555555556,"[[1,2,3,4],[5,6,7,8]]",1000,0,60,10,0.5,0,"stable",FALSE,TRUE,"2/3","1/3",100,"A",0,10,0.01,TRUE,"[.25,.5,.75,1,1.25,1.5,1.75]",55.2
"170",4,1,"1","2016-05-10 14:09:24.300",14629145643,"state",0.13,"2",2,0.13,9,17.3333333333333,"[[1,2,3,4],[5,6,7,8]]",1000,0,60,10,0.5,0,"stable",FALSE,TRUE,"2/3","1/3",100,"A",0,10,0.01,TRUE,"[.25,.5,.75,1,1.25,1.5,1.75]",55.2
"171",4,1,"1","2016-05-10 14:09:24.300",14629145643,"state",9.79,"3",3,9.79,9,652.666666666667,"[[1,2,3,4],[5,6,7,8]]",1000,0,60,10,0.5,0,"stable",FALSE,TRUE,"2/3","1/3",100,"A",0,10,0.01,TRUE,"[.25,.5,.75,1,1.25,1.5,1.75]",55.2
"172",4,1,"1","2016-05-10 14:09:24.300",14629145643,"state",3.55,"4",4,3.55,9,394.444444444444,"[[1,2,3,4],[5,6,7,8]]",1000,0,60,10,0.5,0,"stable",FALSE,TRUE,"2/3","1/3",100,"A",0,10,0.01,TRUE,"[.25,.5,.75,1,1.25,1.5,1.75]",55.2
"173",4,1,"1","2016-05-10 14:09:30.400",14629145704,"state",1.16,"1",1,4.86,10,432,"[[1,2,3,4],[5,6,7,8]]",1000,0,60,10,0.5,0,"stable",FALSE,TRUE,"2/3","1/3",100,"A",0,10,0.01,TRUE,"[.25,.5,.75,1,1.25,1.5,1.75]",61.3
"174",4,1,"1","2016-05-10 14:09:30.400",14629145704,"state",0.95,"2",2,2.4,10,322.222222222222,"[[1,2,3,4],[5,6,7,8]]",1000,0,60,10,0.5,0,"stable",FALSE,TRUE,"2/3","1/3",100,"A",0,10,0.01,TRUE,"[.25,.5,.75,1,1.25,1.5,1.75]",61.3
"175",4,1,"1","2016-05-10 14:09:30.400",14629145704,"state",9.85,"3",3,9.85,10,656.666666666667,"[[1,2,3,4],[5,6,7,8]]",1000,0,60,10,0.5,0,"stable",FALSE,TRUE,"2/3","1/3",100,"A",0,10,0.01,TRUE,"[.25,.5,.75,1,1.25,1.5,1.75]",61.3
"176",4,1,"1","2016-05-10 14:09:30.400",14629145704,"state",2.31,"4",4,2.31,10,308,"[[1,2,3,4],[5,6,7,8]]",1000,0,60,10,0.5,0,"stable",FALSE,TRUE,"2/3","1/3",100,"A",0,10,0.01,TRUE,"[.25,.5,.75,1,1.25,1.5,1.75]",61.3
"177",5,1,"1","2016-05-10 14:09:42.000",14629145820,"state",0.25,"1",1,0.25,-1,33.3333333333333,"[[1,2,3,4],[5,6,7,8]]",1000,0,60,0,0.01,0,"stable",FALSE,TRUE,"2/3","1/3",100,"A",0,10,0.01,TRUE,"[.25,.5,.75,1,1.25,1.5,1.75]",0
"178",5,1,"1","2016-05-10 14:09:42.000",14629145820,"state",0.5,"2",2,0.5,-1,55.5555555555556,"[[1,2,3,4],[5,6,7,8]]",1000,0,60,0,0.01,0,"stable",FALSE,TRUE,"2/3","1/3",100,"A",0,10,0.01,TRUE,"[.25,.5,.75,1,1.25,1.5,1.75]",0
"179",5,1,"1","2016-05-10 14:09:42.000",14629145820,"state",0.75,"3",3,0.75,-1,66.6666666666667,"[[1,2,3,4],[5,6,7,8]]",1000,0,60,0,0.01,0,"stable",FALSE,TRUE,"2/3","1/3",100,"A",0,10,0.01,TRUE,"[.25,.5,.75,1,1.25,1.5,1.75]",0
"180",5,1,"1","2016-05-10 14:09:42.000",14629145820,"state",1,"4",4,1,-1,66.6666666666667,"[[1,2,3,4],[5,6,7,8]]",1000,0,60,0,0.01,0,"stable",FALSE,TRUE,"2/3","1/3",100,"A",0,10,0.01,TRUE,"[.25,.5,.75,1,1.25,1.5,1.75]",0
"181",5,1,"1","2016-05-10 14:09:43.200",14629145832,"state",0.25,"1",1,0.25,-1,33.3333333333333,"[[1,2,3,4],[5,6,7,8]]",1000,0,60,0,0.01,0,"stable",FALSE,TRUE,"2/3","1/3",100,"A",0,10,0.01,TRUE,"[.25,.5,.75,1,1.25,1.5,1.75]",1.2
"182",5,1,"1","2016-05-10 14:09:43.200",14629145832,"state",0.5,"2",2,0.5,-1,55.5555555555556,"[[1,2,3,4],[5,6,7,8]]",1000,0,60,0,0.01,0,"stable",FALSE,TRUE,"2/3","1/3",100,"A",0,10,0.01,TRUE,"[.25,.5,.75,1,1.25,1.5,1.75]",1.2
"183",5,1,"1","2016-05-10 14:09:43.200",14629145832,"state",0.75,"3",3,0.75,-1,66.6666666666667,"[[1,2,3,4],[5,6,7,8]]",1000,0,60,0,0.01,0,"stable",FALSE,TRUE,"2/3","1/3",100,"A",0,10,0.01,TRUE,"[.25,.5,.75,1,1.25,1.5,1.75]",1.2
"184",5,1,"1","2016-05-10 14:09:43.200",14629145832,"state",1,"4",4,1,-1,66.6666666666667,"[[1,2,3,4],[5,6,7,8]]",1000,0,60,0,0.01,0,"stable",FALSE,TRUE,"2/3","1/3",100,"A",0,10,0.01,TRUE,"[.25,.5,.75,1,1.25,1.5,1.75]",1.2
"185",5,1,"1","2016-05-10 14:09:44.400",14629145844,"state",0.25,"1",1,0.25,-1,33.3333333333333,"[[1,2,3,4],[5,6,7,8]]",1000,0,60,0,0.01,0,"stable",FALSE,TRUE,"2/3","1/3",100,"A",0,10,0.01,TRUE,"[.25,.5,.75,1,1.25,1.5,1.75]",2.4
"186",5,1,"1","2016-05-10 14:09:44.400",14629145844,"state",0.5,"2",2,0.5,-1,55.5555555555556,"[[1,2,3,4],[5,6,7,8]]",1000,0,60,0,0.01,0,"stable",FALSE,TRUE,"2/3","1/3",100,"A",0,10,0.01,TRUE,"[.25,.5,.75,1,1.25,1.5,1.75]",2.4
"187",5,1,"1","2016-05-10 14:09:44.400",14629145844,"state",0.75,"3",3,0.75,-1,66.6666666666667,"[[1,2,3,4],[5,6,7,8]]",1000,0,60,0,0.01,0,"stable",FALSE,TRUE,"2/3","1/3",100,"A",0,10,0.01,TRUE,"[.25,.5,.75,1,1.25,1.5,1.75]",2.4
"188",5,1,"1","2016-05-10 14:09:44.400",14629145844,"state",1,"4",4,1,-1,66.6666666666667,"[[1,2,3,4],[5,6,7,8]]",1000,0,60,0,0.01,0,"stable",FALSE,TRUE,"2/3","1/3",100,"A",0,10,0.01,TRUE,"[.25,.5,.75,1,1.25,1.5,1.75]",2.4
"189",5,1,"1","2016-05-10 14:09:45.600",14629145856,"state",0.25,"1",1,0.25,-1,33.3333333333333,"[[1,2,3,4],[5,6,7,8]]",1000,0,60,0,0.01,0,"stable",FALSE,TRUE,"2/3","1/3",100,"A",0,10,0.01,TRUE,"[.25,.5,.75,1,1.25,1.5,1.75]",3.6
"190",5,1,"1","2016-05-10 14:09:45.600",14629145856,"state",0.5,"2",2,0.5,-1,55.5555555555556,"[[1,2,3,4],[5,6,7,8]]",1000,0,60,0,0.01,0,"stable",FALSE,TRUE,"2/3","1/3",100,"A",0,10,0.01,TRUE,"[.25,.5,.75,1,1.25,1.5,1.75]",3.6
"191",5,1,"1","2016-05-10 14:09:45.600",14629145856,"state",0.75,"3",3,0.75,-1,66.6666666666667,"[[1,2,3,4],[5,6,7,8]]",1000,0,60,0,0.01,0,"stable",FALSE,TRUE,"2/3","1/3",100,"A",0,10,0.01,TRUE,"[.25,.5,.75,1,1.25,1.5,1.75]",3.6
"192",5,1,"1","2016-05-10 14:09:45.600",14629145856,"state",1,"4",4,1,-1,66.6666666666667,"[[1,2,3,4],[5,6,7,8]]",1000,0,60,0,0.01,0,"stable",FALSE,TRUE,"2/3","1/3",100,"A",0,10,0.01,TRUE,"[.25,.5,.75,1,1.25,1.5,1.75]",3.6
"193",5,1,"1","2016-05-10 14:09:46.900",14629145869,"state",0.25,"1",1,0.25,-1,33.3333333333333,"[[1,2,3,4],[5,6,7,8]]",1000,0,60,0,0.01,0,"stable",FALSE,TRUE,"2/3","1/3",100,"A",0,10,0.01,TRUE,"[.25,.5,.75,1,1.25,1.5,1.75]",4.9
"194",5,1,"1","2016-05-10 14:09:46.900",14629145869,"state",0.5,"2",2,0.5,-1,55.5555555555556,"[[1,2,3,4],[5,6,7,8]]",1000,0,60,0,0.01,0,"stable",FALSE,TRUE,"2/3","1/3",100,"A",0,10,0.01,TRUE,"[.25,.5,.75,1,1.25,1.5,1.75]",4.9
"195",5,1,"1","2016-05-10 14:09:46.900",14629145869,"state",0.75,"3",3,0.75,-1,66.6666666666667,"[[1,2,3,4],[5,6,7,8]]",1000,0,60,0,0.01,0,"stable",FALSE,TRUE,"2/3","1/3",100,"A",0,10,0.01,TRUE,"[.25,.5,.75,1,1.25,1.5,1.75]",4.9
"196",5,1,"1","2016-05-10 14:09:46.900",14629145869,"state",1,"4",4,1,-1,66.6666666666667,"[[1,2,3,4],[5,6,7,8]]",1000,0,60,0,0.01,0,"stable",FALSE,TRUE,"2/3","1/3",100,"A",0,10,0.01,TRUE,"[.25,.5,.75,1,1.25,1.5,1.75]",4.9
"197",5,1,"1","2016-05-10 14:09:48.100",14629145881,"state",0.25,"1",1,0.25,-1,33.3333333333333,"[[1,2,3,4],[5,6,7,8]]",1000,0,60,0,0.01,0,"stable",FALSE,TRUE,"2/3","1/3",100,"A",0,10,0.01,TRUE,"[.25,.5,.75,1,1.25,1.5,1.75]",6.1
"198",5,1,"1","2016-05-10 14:09:48.100",14629145881,"state",0.5,"2",2,0.5,-1,55.5555555555556,"[[1,2,3,4],[5,6,7,8]]",1000,0,60,0,0.01,0,"stable",FALSE,TRUE,"2/3","1/3",100,"A",0,10,0.01,TRUE,"[.25,.5,.75,1,1.25,1.5,1.75]",6.1
"199",5,1,"1","2016-05-10 14:09:48.100",14629145881,"state",0.75,"3",3,0.75,-1,66.6666666666667,"[[1,2,3,4],[5,6,7,8]]",1000,0,60,0,0.01,0,"stable",FALSE,TRUE,"2/3","1/3",100,"A",0,10,0.01,TRUE,"[.25,.5,.75,1,1.25,1.5,1.75]",6.1
"200",5,1,"1","2016-05-10 14:09:48.100",14629145881,"state",1,"4",4,1,-1,66.6666666666667,"[[1,2,3,4],[5,6,7,8]]",1000,0,60,0,0.01,0,"stable",FALSE,TRUE,"2/3","1/3",100,"A",0,10,0.01,TRUE,"[.25,.5,.75,1,1.25,1.5,1.75]",6.1
"201",5,1,"1","2016-05-10 14:09:49.300",14629145893,"state",0.25,"1",1,0.25,-1,33.3333333333333,"[[1,2,3,4],[5,6,7,8]]",1000,0,60,0,0.01,0,"stable",FALSE,TRUE,"2/3","1/3",100,"A",0,10,0.01,TRUE,"[.25,.5,.75,1,1.25,1.5,1.75]",7.3
"202",5,1,"1","2016-05-10 14:09:49.300",14629145893,"state",0.5,"2",2,0.5,-1,55.5555555555556,"[[1,2,3,4],[5,6,7,8]]",1000,0,60,0,0.01,0,"stable",FALSE,TRUE,"2/3","1/3",100,"A",0,10,0.01,TRUE,"[.25,.5,.75,1,1.25,1.5,1.75]",7.3
"203",5,1,"1","2016-05-10 14:09:49.300",14629145893,"state",0.75,"3",3,0.75,-1,66.6666666666667,"[[1,2,3,4],[5,6,7,8]]",1000,0,60,0,0.01,0,"stable",FALSE,TRUE,"2/3","1/3",100,"A",0,10,0.01,TRUE,"[.25,.5,.75,1,1.25,1.5,1.75]",7.3
"204",5,1,"1","2016-05-10 14:09:49.300",14629145893,"state",1,"4",4,1,-1,66.6666666666667,"[[1,2,3,4],[5,6,7,8]]",1000,0,60,0,0.01,0,"stable",FALSE,TRUE,"2/3","1/3",100,"A",0,10,0.01,TRUE,"[.25,.5,.75,1,1.25,1.5,1.75]",7.3
"205",5,1,"1","2016-05-10 14:09:50.600",14629145906,"state",0.25,"1",1,0.25,-1,33.3333333333333,"[[1,2,3,4],[5,6,7,8]]",1000,0,60,0,0.01,0,"stable",FALSE,TRUE,"2/3","1/3",100,"A",0,10,0.01,TRUE,"[.25,.5,.75,1,1.25,1.5,1.75]",8.6
"206",5,1,"1","2016-05-10 14:09:50.600",14629145906,"state",0.5,"2",2,0.5,-1,55.5555555555556,"[[1,2,3,4],[5,6,7,8]]",1000,0,60,0,0.01,0,"stable",FALSE,TRUE,"2/3","1/3",100,"A",0,10,0.01,TRUE,"[.25,.5,.75,1,1.25,1.5,1.75]",8.6
"207",5,1,"1","2016-05-10 14:09:50.600",14629145906,"state",0.75,"3",3,0.75,-1,66.6666666666667,"[[1,2,3,4],[5,6,7,8]]",1000,0,60,0,0.01,0,"stable",FALSE,TRUE,"2/3","1/3",100,"A",0,10,0.01,TRUE,"[.25,.5,.75,1,1.25,1.5,1.75]",8.6
"208",5,1,"1","2016-05-10 14:09:50.600",14629145906,"state",1,"4",4,1,-1,66.6666666666667,"[[1,2,3,4],[5,6,7,8]]",1000,0,60,0,0.01,0,"stable",FALSE,TRUE,"2/3","1/3",100,"A",0,10,0.01,TRUE,"[.25,.5,.75,1,1.25,1.5,1.75]",8.6
"209",5,1,"1","2016-05-10 14:09:51.800",14629145918,"state",0.25,"1",1,0.25,-1,33.3333333333333,"[[1,2,3,4],[5,6,7,8]]",1000,0,60,0,0.01,0,"stable",FALSE,TRUE,"2/3","1/3",100,"A",0,10,0.01,TRUE,"[.25,.5,.75,1,1.25,1.5,1.75]",9.8
"210",5,1,"1","2016-05-10 14:09:51.800",14629145918,"state",0.5,"2",2,0.5,-1,55.5555555555556,"[[1,2,3,4],[5,6,7,8]]",1000,0,60,0,0.01,0,"stable",FALSE,TRUE,"2/3","1/3",100,"A",0,10,0.01,TRUE,"[.25,.5,.75,1,1.25,1.5,1.75]",9.8
"211",5,1,"1","2016-05-10 14:09:51.800",14629145918,"state",0.75,"3",3,0.75,-1,66.6666666666667,"[[1,2,3,4],[5,6,7,8]]",1000,0,60,0,0.01,0,"stable",FALSE,TRUE,"2/3","1/3",100,"A",0,10,0.01,TRUE,"[.25,.5,.75,1,1.25,1.5,1.75]",9.8
"212",5,1,"1","2016-05-10 14:09:51.800",14629145918,"state",1,"4",4,1,-1,66.6666666666667,"[[1,2,3,4],[5,6,7,8]]",1000,0,60,0,0.01,0,"stable",FALSE,TRUE,"2/3","1/3",100,"A",0,10,0.01,TRUE,"[.25,.5,.75,1,1.25,1.5,1.75]",9.8
"213",5,1,"1","2016-05-10 14:09:53.000",14629145930,"state",0.25,"1",1,0.25,-1,33.3333333333333,"[[1,2,3,4],[5,6,7,8]]",1000,0,60,0,0.01,0,"stable",FALSE,TRUE,"2/3","1/3",100,"A",0,10,0.01,TRUE,"[.25,.5,.75,1,1.25,1.5,1.75]",11
"214",5,1,"1","2016-05-10 14:09:53.000",14629145930,"state",0.5,"2",2,0.5,-1,55.5555555555556,"[[1,2,3,4],[5,6,7,8]]",1000,0,60,0,0.01,0,"stable",FALSE,TRUE,"2/3","1/3",100,"A",0,10,0.01,TRUE,"[.25,.5,.75,1,1.25,1.5,1.75]",11
"215",5,1,"1","2016-05-10 14:09:53.000",14629145930,"state",0.75,"3",3,0.75,-1,66.6666666666667,"[[1,2,3,4],[5,6,7,8]]",1000,0,60,0,0.01,0,"stable",FALSE,TRUE,"2/3","1/3",100,"A",0,10,0.01,TRUE,"[.25,.5,.75,1,1.25,1.5,1.75]",11
"216",5,1,"1","2016-05-10 14:09:53.000",14629145930,"state",1,"4",4,1,-1,66.6666666666667,"[[1,2,3,4],[5,6,7,8]]",1000,0,60,0,0.01,0,"stable",FALSE,TRUE,"2/3","1/3",100,"A",0,10,0.01,TRUE,"[.25,.5,.75,1,1.25,1.5,1.75]",11
"217",5,1,"1","2016-05-10 14:09:54.200",14629145942,"state",0.25,"1",1,0.25,-1,33.3333333333333,"[[1,2,3,4],[5,6,7,8]]",1000,0,60,0,0.01,0,"stable",FALSE,TRUE,"2/3","1/3",100,"A",0,10,0.01,TRUE,"[.25,.5,.75,1,1.25,1.5,1.75]",12.2
"218",5,1,"1","2016-05-10 14:09:54.200",14629145942,"state",0.5,"2",2,0.5,-1,55.5555555555556,"[[1,2,3,4],[5,6,7,8]]",1000,0,60,0,0.01,0,"stable",FALSE,TRUE,"2/3","1/3",100,"A",0,10,0.01,TRUE,"[.25,.5,.75,1,1.25,1.5,1.75]",12.2
"219",5,1,"1","2016-05-10 14:09:54.200",14629145942,"state",0.75,"3",3,0.75,-1,66.6666666666667,"[[1,2,3,4],[5,6,7,8]]",1000,0,60,0,0.01,0,"stable",FALSE,TRUE,"2/3","1/3",100,"A",0,10,0.01,TRUE,"[.25,.5,.75,1,1.25,1.5,1.75]",12.2
"220",5,1,"1","2016-05-10 14:09:54.200",14629145942,"state",1,"4",4,1,-1,66.6666666666667,"[[1,2,3,4],[5,6,7,8]]",1000,0,60,0,0.01,0,"stable",FALSE,TRUE,"2/3","1/3",100,"A",0,10,0.01,TRUE,"[.25,.5,.75,1,1.25,1.5,1.75]",12.2
"221",5,1,"1","2016-05-10 14:09:55.500",14629145955,"state",0.25,"1",1,0.25,-1,33.3333333333333,"[[1,2,3,4],[5,6,7,8]]",1000,0,60,0,0.01,0,"stable",FALSE,TRUE,"2/3","1/3",100,"A",0,10,0.01,TRUE,"[.25,.5,.75,1,1.25,1.5,1.75]",13.5
"222",5,1,"1","2016-05-10 14:09:55.500",14629145955,"state",0.5,"2",2,0.5,-1,55.5555555555556,"[[1,2,3,4],[5,6,7,8]]",1000,0,60,0,0.01,0,"stable",FALSE,TRUE,"2/3","1/3",100,"A",0,10,0.01,TRUE,"[.25,.5,.75,1,1.25,1.5,1.75]",13.5
"223",5,1,"1","2016-05-10 14:09:55.500",14629145955,"state",0.75,"3",3,0.75,-1,66.6666666666667,"[[1,2,3,4],[5,6,7,8]]",1000,0,60,0,0.01,0,"stable",FALSE,TRUE,"2/3","1/3",100,"A",0,10,0.01,TRUE,"[.25,.5,.75,1,1.25,1.5,1.75]",13.5
"224",5,1,"1","2016-05-10 14:09:55.500",14629145955,"state",1,"4",4,1,-1,66.6666666666667,"[[1,2,3,4],[5,6,7,8]]",1000,0,60,0,0.01,0,"stable",FALSE,TRUE,"2/3","1/3",100,"A",0,10,0.01,TRUE,"[.25,.5,.75,1,1.25,1.5,1.75]",13.5
"225",5,1,"1","2016-05-10 14:09:56.700",14629145967,"state",0.25,"1",1,0.25,-1,33.3333333333333,"[[1,2,3,4],[5,6,7,8]]",1000,0,60,0,0.01,0,"stable",FALSE,TRUE,"2/3","1/3",100,"A",0,10,0.01,TRUE,"[.25,.5,.75,1,1.25,1.5,1.75]",14.7
"226",5,1,"1","2016-05-10 14:09:56.700",14629145967,"state",0.5,"2",2,0.5,-1,55.5555555555556,"[[1,2,3,4],[5,6,7,8]]",1000,0,60,0,0.01,0,"stable",FALSE,TRUE,"2/3","1/3",100,"A",0,10,0.01,TRUE,"[.25,.5,.75,1,1.25,1.5,1.75]",14.7
"227",5,1,"1","2016-05-10 14:09:56.700",14629145967,"state",0.75,"3",3,0.75,-1,66.6666666666667,"[[1,2,3,4],[5,6,7,8]]",1000,0,60,0,0.01,0,"stable",FALSE,TRUE,"2/3","1/3",100,"A",0,10,0.01,TRUE,"[.25,.5,.75,1,1.25,1.5,1.75]",14.7
"228",5,1,"1","2016-05-10 14:09:56.700",14629145967,"state",1,"4",4,1,-1,66.6666666666667,"[[1,2,3,4],[5,6,7,8]]",1000,0,60,0,0.01,0,"stable",FALSE,TRUE,"2/3","1/3",100,"A",0,10,0.01,TRUE,"[.25,.5,.75,1,1.25,1.5,1.75]",14.7
"229",5,1,"1","2016-05-10 14:09:57.900",14629145979,"state",0.25,"1",1,0.25,-1,33.3333333333333,"[[1,2,3,4],[5,6,7,8]]",1000,0,60,0,0.01,0,"stable",FALSE,TRUE,"2/3","1/3",100,"A",0,10,0.01,TRUE,"[.25,.5,.75,1,1.25,1.5,1.75]",15.9
"230",5,1,"1","2016-05-10 14:09:57.900",14629145979,"state",0.5,"2",2,0.5,-1,55.5555555555556,"[[1,2,3,4],[5,6,7,8]]",1000,0,60,0,0.01,0,"stable",FALSE,TRUE,"2/3","1/3",100,"A",0,10,0.01,TRUE,"[.25,.5,.75,1,1.25,1.5,1.75]",15.9
"231",5,1,"1","2016-05-10 14:09:57.900",14629145979,"state",0.75,"3",3,0.75,-1,66.6666666666667,"[[1,2,3,4],[5,6,7,8]]",1000,0,60,0,0.01,0,"stable",FALSE,TRUE,"2/3","1/3",100,"A",0,10,0.01,TRUE,"[.25,.5,.75,1,1.25,1.5,1.75]",15.9
"232",5,1,"1","2016-05-10 14:09:57.900",14629145979,"state",1,"4",4,1,-1,66.6666666666667,"[[1,2,3,4],[5,6,7,8]]",1000,0,60,0,0.01,0,"stable",FALSE,TRUE,"2/3","1/3",100,"A",0,10,0.01,TRUE,"[.25,.5,.75,1,1.25,1.5,1.75]",15.9
"233",5,1,"1","2016-05-10 14:09:59.200",14629145992,"state",0.25,"1",1,0.25,-1,33.3333333333333,"[[1,2,3,4],[5,6,7,8]]",1000,0,60,0,0.01,0,"stable",FALSE,TRUE,"2/3","1/3",100,"A",0,10,0.01,TRUE,"[.25,.5,.75,1,1.25,1.5,1.75]",17.2
"234",5,1,"1","2016-05-10 14:09:59.200",14629145992,"state",0.5,"2",2,0.5,-1,55.5555555555556,"[[1,2,3,4],[5,6,7,8]]",1000,0,60,0,0.01,0,"stable",FALSE,TRUE,"2/3","1/3",100,"A",0,10,0.01,TRUE,"[.25,.5,.75,1,1.25,1.5,1.75]",17.2
"235",5,1,"1","2016-05-10 14:09:59.200",14629145992,"state",0.75,"3",3,0.75,-1,66.6666666666667,"[[1,2,3,4],[5,6,7,8]]",1000,0,60,0,0.01,0,"stable",FALSE,TRUE,"2/3","1/3",100,"A",0,10,0.01,TRUE,"[.25,.5,.75,1,1.25,1.5,1.75]",17.2
"236",5,1,"1","2016-05-10 14:09:59.200",14629145992,"state",1,"4",4,1,-1,66.6666666666667,"[[1,2,3,4],[5,6,7,8]]",1000,0,60,0,0.01,0,"stable",FALSE,TRUE,"2/3","1/3",100,"A",0,10,0.01,TRUE,"[.25,.5,.75,1,1.25,1.5,1.75]",17.2
"237",5,1,"1","2016-05-10 14:10:00.400",14629146004,"state",0.25,"1",1,0.25,-1,33.3333333333333,"[[1,2,3,4],[5,6,7,8]]",1000,0,60,0,0.01,0,"stable",FALSE,TRUE,"2/3","1/3",100,"A",0,10,0.01,TRUE,"[.25,.5,.75,1,1.25,1.5,1.75]",18.4
"238",5,1,"1","2016-05-10 14:10:00.400",14629146004,"state",0.5,"2",2,0.5,-1,55.5555555555556,"[[1,2,3,4],[5,6,7,8]]",1000,0,60,0,0.01,0,"stable",FALSE,TRUE,"2/3","1/3",100,"A",0,10,0.01,TRUE,"[.25,.5,.75,1,1.25,1.5,1.75]",18.4
"239",5,1,"1","2016-05-10 14:10:00.400",14629146004,"state",0.75,"3",3,0.75,-1,66.6666666666667,"[[1,2,3,4],[5,6,7,8]]",1000,0,60,0,0.01,0,"stable",FALSE,TRUE,"2/3","1/3",100,"A",0,10,0.01,TRUE,"[.25,.5,.75,1,1.25,1.5,1.75]",18.4
"240",5,1,"1","2016-05-10 14:10:00.400",14629146004,"state",1,"4",4,1,-1,66.6666666666667,"[[1,2,3,4],[5,6,7,8]]",1000,0,60,0,0.01,0,"stable",FALSE,TRUE,"2/3","1/3",100,"A",0,10,0.01,TRUE,"[.25,.5,.75,1,1.25,1.5,1.75]",18.4
"241",5,1,"1","2016-05-10 14:10:01.600",14629146016,"state",0.25,"1",1,0.25,-1,33.3333333333333,"[[1,2,3,4],[5,6,7,8]]",1000,0,60,0,0.01,0,"stable",FALSE,TRUE,"2/3","1/3",100,"A",0,10,0.01,TRUE,"[.25,.5,.75,1,1.25,1.5,1.75]",19.6
"242",5,1,"1","2016-05-10 14:10:01.600",14629146016,"state",0.5,"2",2,0.5,-1,55.5555555555556,"[[1,2,3,4],[5,6,7,8]]",1000,0,60,0,0.01,0,"stable",FALSE,TRUE,"2/3","1/3",100,"A",0,10,0.01,TRUE,"[.25,.5,.75,1,1.25,1.5,1.75]",19.6
"243",5,1,"1","2016-05-10 14:10:01.600",14629146016,"state",0.75,"3",3,0.75,-1,66.6666666666667,"[[1,2,3,4],[5,6,7,8]]",1000,0,60,0,0.01,0,"stable",FALSE,TRUE,"2/3","1/3",100,"A",0,10,0.01,TRUE,"[.25,.5,.75,1,1.25,1.5,1.75]",19.6
"244",5,1,"1","2016-05-10 14:10:01.600",14629146016,"state",1,"4",4,1,-1,66.6666666666667,"[[1,2,3,4],[5,6,7,8]]",1000,0,60,0,0.01,0,"stable",FALSE,TRUE,"2/3","1/3",100,"A",0,10,0.01,TRUE,"[.25,.5,.75,1,1.25,1.5,1.75]",19.6
"245",5,1,"1","2016-05-10 14:10:02.800",14629146028,"state",0.25,"1",1,0.25,-1,33.3333333333333,"[[1,2,3,4],[5,6,7,8]]",1000,0,60,0,0.01,0,"stable",FALSE,TRUE,"2/3","1/3",100,"A",0,10,0.01,TRUE,"[.25,.5,.75,1,1.25,1.5,1.75]",20.8
"246",5,1,"1","2016-05-10 14:10:02.800",14629146028,"state",0.5,"2",2,0.5,-1,55.5555555555556,"[[1,2,3,4],[5,6,7,8]]",1000,0,60,0,0.01,0,"stable",FALSE,TRUE,"2/3","1/3",100,"A",0,10,0.01,TRUE,"[.25,.5,.75,1,1.25,1.5,1.75]",20.8
"247",5,1,"1","2016-05-10 14:10:02.800",14629146028,"state",0.75,"3",3,0.75,-1,66.6666666666667,"[[1,2,3,4],[5,6,7,8]]",1000,0,60,0,0.01,0,"stable",FALSE,TRUE,"2/3","1/3",100,"A",0,10,0.01,TRUE,"[.25,.5,.75,1,1.25,1.5,1.75]",20.8
"248",5,1,"1","2016-05-10 14:10:02.800",14629146028,"state",1,"4",4,1,-1,66.6666666666667,"[[1,2,3,4],[5,6,7,8]]",1000,0,60,0,0.01,0,"stable",FALSE,TRUE,"2/3","1/3",100,"A",0,10,0.01,TRUE,"[.25,.5,.75,1,1.25,1.5,1.75]",20.8
"249",5,1,"1","2016-05-10 14:10:04.100",14629146041,"state",0.25,"1",1,0.25,-1,33.3333333333333,"[[1,2,3,4],[5,6,7,8]]",1000,0,60,0,0.01,0,"stable",FALSE,TRUE,"2/3","1/3",100,"A",0,10,0.01,TRUE,"[.25,.5,.75,1,1.25,1.5,1.75]",22.1
"250",5,1,"1","2016-05-10 14:10:04.100",14629146041,"state",0.5,"2",2,0.5,-1,55.5555555555556,"[[1,2,3,4],[5,6,7,8]]",1000,0,60,0,0.01,0,"stable",FALSE,TRUE,"2/3","1/3",100,"A",0,10,0.01,TRUE,"[.25,.5,.75,1,1.25,1.5,1.75]",22.1
"251",5,1,"1","2016-05-10 14:10:04.100",14629146041,"state",0.75,"3",3,0.75,-1,66.6666666666667,"[[1,2,3,4],[5,6,7,8]]",1000,0,60,0,0.01,0,"stable",FALSE,TRUE,"2/3","1/3",100,"A",0,10,0.01,TRUE,"[.25,.5,.75,1,1.25,1.5,1.75]",22.1
"252",5,1,"1","2016-05-10 14:10:04.100",14629146041,"state",1,"4",4,1,-1,66.6666666666667,"[[1,2,3,4],[5,6,7,8]]",1000,0,60,0,0.01,0,"stable",FALSE,TRUE,"2/3","1/3",100,"A",0,10,0.01,TRUE,"[.25,.5,.75,1,1.25,1.5,1.75]",22.1
"253",5,1,"1","2016-05-10 14:10:05.300",14629146053,"state",0.25,"1",1,0.25,-1,33.3333333333333,"[[1,2,3,4],[5,6,7,8]]",1000,0,60,0,0.01,0,"stable",FALSE,TRUE,"2/3","1/3",100,"A",0,10,0.01,TRUE,"[.25,.5,.75,1,1.25,1.5,1.75]",23.3
"254",5,1,"1","2016-05-10 14:10:05.300",14629146053,"state",0.5,"2",2,0.5,-1,55.5555555555556,"[[1,2,3,4],[5,6,7,8]]",1000,0,60,0,0.01,0,"stable",FALSE,TRUE,"2/3","1/3",100,"A",0,10,0.01,TRUE,"[.25,.5,.75,1,1.25,1.5,1.75]",23.3
"255",5,1,"1","2016-05-10 14:10:05.300",14629146053,"state",0.75,"3",3,0.75,-1,66.6666666666667,"[[1,2,3,4],[5,6,7,8]]",1000,0,60,0,0.01,0,"stable",FALSE,TRUE,"2/3","1/3",100,"A",0,10,0.01,TRUE,"[.25,.5,.75,1,1.25,1.5,1.75]",23.3
"256",5,1,"1","2016-05-10 14:10:05.300",14629146053,"state",1,"4",4,1,-1,66.6666666666667,"[[1,2,3,4],[5,6,7,8]]",1000,0,60,0,0.01,0,"stable",FALSE,TRUE,"2/3","1/3",100,"A",0,10,0.01,TRUE,"[.25,.5,.75,1,1.25,1.5,1.75]",23.3
"257",5,1,"1","2016-05-10 14:10:06.500",14629146065,"state",0.25,"1",1,0.25,-1,33.3333333333333,"[[1,2,3,4],[5,6,7,8]]",1000,0,60,0,0.01,0,"stable",FALSE,TRUE,"2/3","1/3",100,"A",0,10,0.01,TRUE,"[.25,.5,.75,1,1.25,1.5,1.75]",24.5
"258",5,1,"1","2016-05-10 14:10:06.500",14629146065,"state",0.5,"2",2,0.5,-1,55.5555555555556,"[[1,2,3,4],[5,6,7,8]]",1000,0,60,0,0.01,0,"stable",FALSE,TRUE,"2/3","1/3",100,"A",0,10,0.01,TRUE,"[.25,.5,.75,1,1.25,1.5,1.75]",24.5
"259",5,1,"1","2016-05-10 14:10:06.500",14629146065,"state",0.75,"3",3,0.75,-1,66.6666666666667,"[[1,2,3,4],[5,6,7,8]]",1000,0,60,0,0.01,0,"stable",FALSE,TRUE,"2/3","1/3",100,"A",0,10,0.01,TRUE,"[.25,.5,.75,1,1.25,1.5,1.75]",24.5
"260",5,1,"1","2016-05-10 14:10:06.500",14629146065,"state",1,"4",4,1,-1,66.6666666666667,"[[1,2,3,4],[5,6,7,8]]",1000,0,60,0,0.01,0,"stable",FALSE,TRUE,"2/3","1/3",100,"A",0,10,0.01,TRUE,"[.25,.5,.75,1,1.25,1.5,1.75]",24.5
"261",5,1,"1","2016-05-10 14:10:07.700",14629146077,"state",0.25,"1",1,0.25,-1,33.3333333333333,"[[1,2,3,4],[5,6,7,8]]",1000,0,60,0,0.01,0,"stable",FALSE,TRUE,"2/3","1/3",100,"A",0,10,0.01,TRUE,"[.25,.5,.75,1,1.25,1.5,1.75]",25.7
"262",5,1,"1","2016-05-10 14:10:07.700",14629146077,"state",0.5,"2",2,0.5,-1,55.5555555555556,"[[1,2,3,4],[5,6,7,8]]",1000,0,60,0,0.01,0,"stable",FALSE,TRUE,"2/3","1/3",100,"A",0,10,0.01,TRUE,"[.25,.5,.75,1,1.25,1.5,1.75]",25.7
"263",5,1,"1","2016-05-10 14:10:07.700",14629146077,"state",0.75,"3",3,0.75,-1,66.6666666666667,"[[1,2,3,4],[5,6,7,8]]",1000,0,60,0,0.01,0,"stable",FALSE,TRUE,"2/3","1/3",100,"A",0,10,0.01,TRUE,"[.25,.5,.75,1,1.25,1.5,1.75]",25.7
"264",5,1,"1","2016-05-10 14:10:07.700",14629146077,"state",1,"4",4,1,-1,66.6666666666667,"[[1,2,3,4],[5,6,7,8]]",1000,0,60,0,0.01,0,"stable",FALSE,TRUE,"2/3","1/3",100,"A",0,10,0.01,TRUE,"[.25,.5,.75,1,1.25,1.5,1.75]",25.7
"265",5,1,"1","2016-05-10 14:10:09.000",14629146090,"state",0.25,"1",1,0.25,-1,33.3333333333333,"[[1,2,3,4],[5,6,7,8]]",1000,0,60,0,0.01,0,"stable",FALSE,TRUE,"2/3","1/3",100,"A",0,10,0.01,TRUE,"[.25,.5,.75,1,1.25,1.5,1.75]",27
"266",5,1,"1","2016-05-10 14:10:09.000",14629146090,"state",0.5,"2",2,0.5,-1,55.5555555555556,"[[1,2,3,4],[5,6,7,8]]",1000,0,60,0,0.01,0,"stable",FALSE,TRUE,"2/3","1/3",100,"A",0,10,0.01,TRUE,"[.25,.5,.75,1,1.25,1.5,1.75]",27
"267",5,1,"1","2016-05-10 14:10:09.000",14629146090,"state",0.75,"3",3,0.75,-1,66.6666666666667,"[[1,2,3,4],[5,6,7,8]]",1000,0,60,0,0.01,0,"stable",FALSE,TRUE,"2/3","1/3",100,"A",0,10,0.01,TRUE,"[.25,.5,.75,1,1.25,1.5,1.75]",27
"268",5,1,"1","2016-05-10 14:10:09.000",14629146090,"state",1,"4",4,1,-1,66.6666666666667,"[[1,2,3,4],[5,6,7,8]]",1000,0,60,0,0.01,0,"stable",FALSE,TRUE,"2/3","1/3",100,"A",0,10,0.01,TRUE,"[.25,.5,.75,1,1.25,1.5,1.75]",27
"269",5,1,"1","2016-05-10 14:10:10.200",14629146102,"state",0.25,"1",1,0.25,-1,33.3333333333333,"[[1,2,3,4],[5,6,7,8]]",1000,0,60,0,0.01,0,"stable",FALSE,TRUE,"2/3","1/3",100,"A",0,10,0.01,TRUE,"[.25,.5,.75,1,1.25,1.5,1.75]",28.2
"270",5,1,"1","2016-05-10 14:10:10.200",14629146102,"state",0.5,"2",2,0.5,-1,55.5555555555556,"[[1,2,3,4],[5,6,7,8]]",1000,0,60,0,0.01,0,"stable",FALSE,TRUE,"2/3","1/3",100,"A",0,10,0.01,TRUE,"[.25,.5,.75,1,1.25,1.5,1.75]",28.2
"271",5,1,"1","2016-05-10 14:10:10.200",14629146102,"state",0.75,"3",3,0.75,-1,66.6666666666667,"[[1,2,3,4],[5,6,7,8]]",1000,0,60,0,0.01,0,"stable",FALSE,TRUE,"2/3","1/3",100,"A",0,10,0.01,TRUE,"[.25,.5,.75,1,1.25,1.5,1.75]",28.2
"272",5,1,"1","2016-05-10 14:10:10.200",14629146102,"state",1,"4",4,1,-1,66.6666666666667,"[[1,2,3,4],[5,6,7,8]]",1000,0,60,0,0.01,0,"stable",FALSE,TRUE,"2/3","1/3",100,"A",0,10,0.01,TRUE,"[.25,.5,.75,1,1.25,1.5,1.75]",28.2
"273",5,1,"1","2016-05-10 14:10:11.400",14629146114,"state",0.25,"1",1,0.25,-1,33.3333333333333,"[[1,2,3,4],[5,6,7,8]]",1000,0,60,0,0.01,0,"stable",FALSE,TRUE,"2/3","1/3",100,"A",0,10,0.01,TRUE,"[.25,.5,.75,1,1.25,1.5,1.75]",29.4
"274",5,1,"1","2016-05-10 14:10:11.400",14629146114,"state",0.5,"2",2,0.5,-1,55.5555555555556,"[[1,2,3,4],[5,6,7,8]]",1000,0,60,0,0.01,0,"stable",FALSE,TRUE,"2/3","1/3",100,"A",0,10,0.01,TRUE,"[.25,.5,.75,1,1.25,1.5,1.75]",29.4
"275",5,1,"1","2016-05-10 14:10:11.400",14629146114,"state",0.75,"3",3,0.75,-1,66.6666666666667,"[[1,2,3,4],[5,6,7,8]]",1000,0,60,0,0.01,0,"stable",FALSE,TRUE,"2/3","1/3",100,"A",0,10,0.01,TRUE,"[.25,.5,.75,1,1.25,1.5,1.75]",29.4
"276",5,1,"1","2016-05-10 14:10:11.400",14629146114,"state",1,"4",4,1,-1,66.6666666666667,"[[1,2,3,4],[5,6,7,8]]",1000,0,60,0,0.01,0,"stable",FALSE,TRUE,"2/3","1/3",100,"A",0,10,0.01,TRUE,"[.25,.5,.75,1,1.25,1.5,1.75]",29.4
"277",5,1,"1","2016-05-10 14:10:12.700",14629146127,"state",0.25,"1",1,0.25,-1,33.3333333333333,"[[1,2,3,4],[5,6,7,8]]",1000,0,60,0,0.01,0,"stable",FALSE,TRUE,"2/3","1/3",100,"A",0,10,0.01,TRUE,"[.25,.5,.75,1,1.25,1.5,1.75]",30.7
"278",5,1,"1","2016-05-10 14:10:12.700",14629146127,"state",0.5,"2",2,0.5,-1,55.5555555555556,"[[1,2,3,4],[5,6,7,8]]",1000,0,60,0,0.01,0,"stable",FALSE,TRUE,"2/3","1/3",100,"A",0,10,0.01,TRUE,"[.25,.5,.75,1,1.25,1.5,1.75]",30.7
"279",5,1,"1","2016-05-10 14:10:12.700",14629146127,"state",0.75,"3",3,0.75,-1,66.6666666666667,"[[1,2,3,4],[5,6,7,8]]",1000,0,60,0,0.01,0,"stable",FALSE,TRUE,"2/3","1/3",100,"A",0,10,0.01,TRUE,"[.25,.5,.75,1,1.25,1.5,1.75]",30.7
"280",5,1,"1","2016-05-10 14:10:12.700",14629146127,"state",1,"4",4,1,-1,66.6666666666667,"[[1,2,3,4],[5,6,7,8]]",1000,0,60,0,0.01,0,"stable",FALSE,TRUE,"2/3","1/3",100,"A",0,10,0.01,TRUE,"[.25,.5,.75,1,1.25,1.5,1.75]",30.7
"281",5,1,"1","2016-05-10 14:10:13.900",14629146139,"state",0.25,"1",1,0.25,-1,33.3333333333333,"[[1,2,3,4],[5,6,7,8]]",1000,0,60,0,0.01,0,"stable",FALSE,TRUE,"2/3","1/3",100,"A",0,10,0.01,TRUE,"[.25,.5,.75,1,1.25,1.5,1.75]",31.9
"282",5,1,"1","2016-05-10 14:10:13.900",14629146139,"state",0.5,"2",2,0.5,-1,55.5555555555556,"[[1,2,3,4],[5,6,7,8]]",1000,0,60,0,0.01,0,"stable",FALSE,TRUE,"2/3","1/3",100,"A",0,10,0.01,TRUE,"[.25,.5,.75,1,1.25,1.5,1.75]",31.9
"283",5,1,"1","2016-05-10 14:10:13.900",14629146139,"state",0.75,"3",3,0.75,-1,66.6666666666667,"[[1,2,3,4],[5,6,7,8]]",1000,0,60,0,0.01,0,"stable",FALSE,TRUE,"2/3","1/3",100,"A",0,10,0.01,TRUE,"[.25,.5,.75,1,1.25,1.5,1.75]",31.9
"284",5,1,"1","2016-05-10 14:10:13.900",14629146139,"state",1,"4",4,1,-1,66.6666666666667,"[[1,2,3,4],[5,6,7,8]]",1000,0,60,0,0.01,0,"stable",FALSE,TRUE,"2/3","1/3",100,"A",0,10,0.01,TRUE,"[.25,.5,.75,1,1.25,1.5,1.75]",31.9
"285",5,1,"1","2016-05-10 14:10:15.100",14629146151,"state",0.25,"1",1,0.25,-1,33.3333333333333,"[[1,2,3,4],[5,6,7,8]]",1000,0,60,0,0.01,0,"stable",FALSE,TRUE,"2/3","1/3",100,"A",0,10,0.01,TRUE,"[.25,.5,.75,1,1.25,1.5,1.75]",33.1
"286",5,1,"1","2016-05-10 14:10:15.100",14629146151,"state",0.5,"2",2,0.5,-1,55.5555555555556,"[[1,2,3,4],[5,6,7,8]]",1000,0,60,0,0.01,0,"stable",FALSE,TRUE,"2/3","1/3",100,"A",0,10,0.01,TRUE,"[.25,.5,.75,1,1.25,1.5,1.75]",33.1
"287",5,1,"1","2016-05-10 14:10:15.100",14629146151,"state",0.75,"3",3,0.75,-1,66.6666666666667,"[[1,2,3,4],[5,6,7,8]]",1000,0,60,0,0.01,0,"stable",FALSE,TRUE,"2/3","1/3",100,"A",0,10,0.01,TRUE,"[.25,.5,.75,1,1.25,1.5,1.75]",33.1
"288",5,1,"1","2016-05-10 14:10:15.100",14629146151,"state",1,"4",4,1,-1,66.6666666666667,"[[1,2,3,4],[5,6,7,8]]",1000,0,60,0,0.01,0,"stable",FALSE,TRUE,"2/3","1/3",100,"A",0,10,0.01,TRUE,"[.25,.5,.75,1,1.25,1.5,1.75]",33.1
"289",5,1,"1","2016-05-10 14:10:16.300",14629146163,"state",0.25,"1",1,0.25,-1,33.3333333333333,"[[1,2,3,4],[5,6,7,8]]",1000,0,60,0,0.01,0,"stable",FALSE,TRUE,"2/3","1/3",100,"A",0,10,0.01,TRUE,"[.25,.5,.75,1,1.25,1.5,1.75]",34.3
"290",5,1,"1","2016-05-10 14:10:16.300",14629146163,"state",0.5,"2",2,0.5,-1,55.5555555555556,"[[1,2,3,4],[5,6,7,8]]",1000,0,60,0,0.01,0,"stable",FALSE,TRUE,"2/3","1/3",100,"A",0,10,0.01,TRUE,"[.25,.5,.75,1,1.25,1.5,1.75]",34.3
"291",5,1,"1","2016-05-10 14:10:16.300",14629146163,"state",0.75,"3",3,0.75,-1,66.6666666666667,"[[1,2,3,4],[5,6,7,8]]",1000,0,60,0,0.01,0,"stable",FALSE,TRUE,"2/3","1/3",100,"A",0,10,0.01,TRUE,"[.25,.5,.75,1,1.25,1.5,1.75]",34.3
"292",5,1,"1","2016-05-10 14:10:16.300",14629146163,"state",1,"4",4,1,-1,66.6666666666667,"[[1,2,3,4],[5,6,7,8]]",1000,0,60,0,0.01,0,"stable",FALSE,TRUE,"2/3","1/3",100,"A",0,10,0.01,TRUE,"[.25,.5,.75,1,1.25,1.5,1.75]",34.3
"293",5,1,"1","2016-05-10 14:10:17.600",14629146176,"state",0.25,"1",1,0.25,-1,33.3333333333333,"[[1,2,3,4],[5,6,7,8]]",1000,0,60,0,0.01,0,"stable",FALSE,TRUE,"2/3","1/3",100,"A",0,10,0.01,TRUE,"[.25,.5,.75,1,1.25,1.5,1.75]",35.6
"294",5,1,"1","2016-05-10 14:10:17.600",14629146176,"state",0.5,"2",2,0.5,-1,55.5555555555556,"[[1,2,3,4],[5,6,7,8]]",1000,0,60,0,0.01,0,"stable",FALSE,TRUE,"2/3","1/3",100,"A",0,10,0.01,TRUE,"[.25,.5,.75,1,1.25,1.5,1.75]",35.6
"295",5,1,"1","2016-05-10 14:10:17.600",14629146176,"state",0.75,"3",3,0.75,-1,66.6666666666667,"[[1,2,3,4],[5,6,7,8]]",1000,0,60,0,0.01,0,"stable",FALSE,TRUE,"2/3","1/3",100,"A",0,10,0.01,TRUE,"[.25,.5,.75,1,1.25,1.5,1.75]",35.6
"296",5,1,"1","2016-05-10 14:10:17.600",14629146176,"state",1,"4",4,1,-1,66.6666666666667,"[[1,2,3,4],[5,6,7,8]]",1000,0,60,0,0.01,0,"stable",FALSE,TRUE,"2/3","1/3",100,"A",0,10,0.01,TRUE,"[.25,.5,.75,1,1.25,1.5,1.75]",35.6
"297",5,1,"1","2016-05-10 14:10:18.800",14629146188,"state",0.25,"1",1,0.25,-1,33.3333333333333,"[[1,2,3,4],[5,6,7,8]]",1000,0,60,0,0.01,0,"stable",FALSE,TRUE,"2/3","1/3",100,"A",0,10,0.01,TRUE,"[.25,.5,.75,1,1.25,1.5,1.75]",36.8
"298",5,1,"1","2016-05-10 14:10:18.800",14629146188,"state",0.5,"2",2,0.5,-1,55.5555555555556,"[[1,2,3,4],[5,6,7,8]]",1000,0,60,0,0.01,0,"stable",FALSE,TRUE,"2/3","1/3",100,"A",0,10,0.01,TRUE,"[.25,.5,.75,1,1.25,1.5,1.75]",36.8
"299",5,1,"1","2016-05-10 14:10:18.800",14629146188,"state",0.75,"3",3,0.75,-1,66.6666666666667,"[[1,2,3,4],[5,6,7,8]]",1000,0,60,0,0.01,0,"stable",FALSE,TRUE,"2/3","1/3",100,"A",0,10,0.01,TRUE,"[.25,.5,.75,1,1.25,1.5,1.75]",36.8
"300",5,1,"1","2016-05-10 14:10:18.800",14629146188,"state",1,"4",4,1,-1,66.6666666666667,"[[1,2,3,4],[5,6,7,8]]",1000,0,60,0,0.01,0,"stable",FALSE,TRUE,"2/3","1/3",100,"A",0,10,0.01,TRUE,"[.25,.5,.75,1,1.25,1.5,1.75]",36.8
"301",5,1,"1","2016-05-10 14:10:20.000",14629146200,"state",0.25,"1",1,0.25,-1,33.3333333333333,"[[1,2,3,4],[5,6,7,8]]",1000,0,60,0,0.01,0,"stable",FALSE,TRUE,"2/3","1/3",100,"A",0,10,0.01,TRUE,"[.25,.5,.75,1,1.25,1.5,1.75]",38
"302",5,1,"1","2016-05-10 14:10:20.000",14629146200,"state",0.5,"2",2,0.5,-1,55.5555555555556,"[[1,2,3,4],[5,6,7,8]]",1000,0,60,0,0.01,0,"stable",FALSE,TRUE,"2/3","1/3",100,"A",0,10,0.01,TRUE,"[.25,.5,.75,1,1.25,1.5,1.75]",38
"303",5,1,"1","2016-05-10 14:10:20.000",14629146200,"state",0.75,"3",3,0.75,-1,66.6666666666667,"[[1,2,3,4],[5,6,7,8]]",1000,0,60,0,0.01,0,"stable",FALSE,TRUE,"2/3","1/3",100,"A",0,10,0.01,TRUE,"[.25,.5,.75,1,1.25,1.5,1.75]",38
"304",5,1,"1","2016-05-10 14:10:20.000",14629146200,"state",1,"4",4,1,-1,66.6666666666667,"[[1,2,3,4],[5,6,7,8]]",1000,0,60,0,0.01,0,"stable",FALSE,TRUE,"2/3","1/3",100,"A",0,10,0.01,TRUE,"[.25,.5,.75,1,1.25,1.5,1.75]",38
"305",5,1,"1","2016-05-10 14:10:21.300",14629146213,"state",0.25,"1",1,0.25,-1,33.3333333333333,"[[1,2,3,4],[5,6,7,8]]",1000,0,60,0,0.01,0,"stable",FALSE,TRUE,"2/3","1/3",100,"A",0,10,0.01,TRUE,"[.25,.5,.75,1,1.25,1.5,1.75]",39.3
"306",5,1,"1","2016-05-10 14:10:21.300",14629146213,"state",0.5,"2",2,0.5,-1,55.5555555555556,"[[1,2,3,4],[5,6,7,8]]",1000,0,60,0,0.01,0,"stable",FALSE,TRUE,"2/3","1/3",100,"A",0,10,0.01,TRUE,"[.25,.5,.75,1,1.25,1.5,1.75]",39.3
"307",5,1,"1","2016-05-10 14:10:21.300",14629146213,"state",0.75,"3",3,0.75,-1,66.6666666666667,"[[1,2,3,4],[5,6,7,8]]",1000,0,60,0,0.01,0,"stable",FALSE,TRUE,"2/3","1/3",100,"A",0,10,0.01,TRUE,"[.25,.5,.75,1,1.25,1.5,1.75]",39.3
"308",5,1,"1","2016-05-10 14:10:21.300",14629146213,"state",1,"4",4,1,-1,66.6666666666667,"[[1,2,3,4],[5,6,7,8]]",1000,0,60,0,0.01,0,"stable",FALSE,TRUE,"2/3","1/3",100,"A",0,10,0.01,TRUE,"[.25,.5,.75,1,1.25,1.5,1.75]",39.3
"309",5,1,"1","2016-05-10 14:10:22.500",14629146225,"state",0.25,"1",1,0.25,-1,33.3333333333333,"[[1,2,3,4],[5,6,7,8]]",1000,0,60,0,0.01,0,"stable",FALSE,TRUE,"2/3","1/3",100,"A",0,10,0.01,TRUE,"[.25,.5,.75,1,1.25,1.5,1.75]",40.5
"310",5,1,"1","2016-05-10 14:10:22.500",14629146225,"state",0.5,"2",2,0.5,-1,55.5555555555556,"[[1,2,3,4],[5,6,7,8]]",1000,0,60,0,0.01,0,"stable",FALSE,TRUE,"2/3","1/3",100,"A",0,10,0.01,TRUE,"[.25,.5,.75,1,1.25,1.5,1.75]",40.5
"311",5,1,"1","2016-05-10 14:10:22.500",14629146225,"state",0.75,"3",3,0.75,-1,66.6666666666667,"[[1,2,3,4],[5,6,7,8]]",1000,0,60,0,0.01,0,"stable",FALSE,TRUE,"2/3","1/3",100,"A",0,10,0.01,TRUE,"[.25,.5,.75,1,1.25,1.5,1.75]",40.5
"312",5,1,"1","2016-05-10 14:10:22.500",14629146225,"state",1,"4",4,1,-1,66.6666666666667,"[[1,2,3,4],[5,6,7,8]]",1000,0,60,0,0.01,0,"stable",FALSE,TRUE,"2/3","1/3",100,"A",0,10,0.01,TRUE,"[.25,.5,.75,1,1.25,1.5,1.75]",40.5
"313",5,1,"1","2016-05-10 14:10:23.700",14629146237,"state",0.25,"1",1,0.25,-1,33.3333333333333,"[[1,2,3,4],[5,6,7,8]]",1000,0,60,0,0.01,0,"stable",FALSE,TRUE,"2/3","1/3",100,"A",0,10,0.01,TRUE,"[.25,.5,.75,1,1.25,1.5,1.75]",41.7
"314",5,1,"1","2016-05-10 14:10:23.700",14629146237,"state",0.5,"2",2,0.5,-1,55.5555555555556,"[[1,2,3,4],[5,6,7,8]]",1000,0,60,0,0.01,0,"stable",FALSE,TRUE,"2/3","1/3",100,"A",0,10,0.01,TRUE,"[.25,.5,.75,1,1.25,1.5,1.75]",41.7
"315",5,1,"1","2016-05-10 14:10:23.700",14629146237,"state",0.75,"3",3,0.75,-1,66.6666666666667,"[[1,2,3,4],[5,6,7,8]]",1000,0,60,0,0.01,0,"stable",FALSE,TRUE,"2/3","1/3",100,"A",0,10,0.01,TRUE,"[.25,.5,.75,1,1.25,1.5,1.75]",41.7
"316",5,1,"1","2016-05-10 14:10:23.700",14629146237,"state",1,"4",4,1,-1,66.6666666666667,"[[1,2,3,4],[5,6,7,8]]",1000,0,60,0,0.01,0,"stable",FALSE,TRUE,"2/3","1/3",100,"A",0,10,0.01,TRUE,"[.25,.5,.75,1,1.25,1.5,1.75]",41.7
"317",5,1,"1","2016-05-10 14:10:24.900",14629146249,"state",0.25,"1",1,0.25,-1,33.3333333333333,"[[1,2,3,4],[5,6,7,8]]",1000,0,60,0,0.01,0,"stable",FALSE,TRUE,"2/3","1/3",100,"A",0,10,0.01,TRUE,"[.25,.5,.75,1,1.25,1.5,1.75]",42.9
"318",5,1,"1","2016-05-10 14:10:24.900",14629146249,"state",0.5,"2",2,0.5,-1,55.5555555555556,"[[1,2,3,4],[5,6,7,8]]",1000,0,60,0,0.01,0,"stable",FALSE,TRUE,"2/3","1/3",100,"A",0,10,0.01,TRUE,"[.25,.5,.75,1,1.25,1.5,1.75]",42.9
"319",5,1,"1","2016-05-10 14:10:24.900",14629146249,"state",0.75,"3",3,0.75,-1,66.6666666666667,"[[1,2,3,4],[5,6,7,8]]",1000,0,60,0,0.01,0,"stable",FALSE,TRUE,"2/3","1/3",100,"A",0,10,0.01,TRUE,"[.25,.5,.75,1,1.25,1.5,1.75]",42.9
"320",5,1,"1","2016-05-10 14:10:24.900",14629146249,"state",1,"4",4,1,-1,66.6666666666667,"[[1,2,3,4],[5,6,7,8]]",1000,0,60,0,0.01,0,"stable",FALSE,TRUE,"2/3","1/3",100,"A",0,10,0.01,TRUE,"[.25,.5,.75,1,1.25,1.5,1.75]",42.9
"321",5,1,"1","2016-05-10 14:10:26.200",14629146262,"state",0.25,"1",1,0.25,-1,33.3333333333333,"[[1,2,3,4],[5,6,7,8]]",1000,0,60,0,0.01,0,"stable",FALSE,TRUE,"2/3","1/3",100,"A",0,10,0.01,TRUE,"[.25,.5,.75,1,1.25,1.5,1.75]",44.2
"322",5,1,"1","2016-05-10 14:10:26.200",14629146262,"state",0.5,"2",2,0.5,-1,55.5555555555556,"[[1,2,3,4],[5,6,7,8]]",1000,0,60,0,0.01,0,"stable",FALSE,TRUE,"2/3","1/3",100,"A",0,10,0.01,TRUE,"[.25,.5,.75,1,1.25,1.5,1.75]",44.2
"323",5,1,"1","2016-05-10 14:10:26.200",14629146262,"state",0.75,"3",3,0.75,-1,66.6666666666667,"[[1,2,3,4],[5,6,7,8]]",1000,0,60,0,0.01,0,"stable",FALSE,TRUE,"2/3","1/3",100,"A",0,10,0.01,TRUE,"[.25,.5,.75,1,1.25,1.5,1.75]",44.2
"324",5,1,"1","2016-05-10 14:10:26.200",14629146262,"state",1,"4",4,1,-1,66.6666666666667,"[[1,2,3,4],[5,6,7,8]]",1000,0,60,0,0.01,0,"stable",FALSE,TRUE,"2/3","1/3",100,"A",0,10,0.01,TRUE,"[.25,.5,.75,1,1.25,1.5,1.75]",44.2
"325",5,1,"1","2016-05-10 14:10:27.400",14629146274,"state",0.25,"1",1,0.25,-1,33.3333333333333,"[[1,2,3,4],[5,6,7,8]]",1000,0,60,0,0.01,0,"stable",FALSE,TRUE,"2/3","1/3",100,"A",0,10,0.01,TRUE,"[.25,.5,.75,1,1.25,1.5,1.75]",45.4
"326",5,1,"1","2016-05-10 14:10:27.400",14629146274,"state",0.5,"2",2,0.5,-1,55.5555555555556,"[[1,2,3,4],[5,6,7,8]]",1000,0,60,0,0.01,0,"stable",FALSE,TRUE,"2/3","1/3",100,"A",0,10,0.01,TRUE,"[.25,.5,.75,1,1.25,1.5,1.75]",45.4
"327",5,1,"1","2016-05-10 14:10:27.400",14629146274,"state",0.75,"3",3,0.75,-1,66.6666666666667,"[[1,2,3,4],[5,6,7,8]]",1000,0,60,0,0.01,0,"stable",FALSE,TRUE,"2/3","1/3",100,"A",0,10,0.01,TRUE,"[.25,.5,.75,1,1.25,1.5,1.75]",45.4
"328",5,1,"1","2016-05-10 14:10:27.400",14629146274,"state",1,"4",4,1,-1,66.6666666666667,"[[1,2,3,4],[5,6,7,8]]",1000,0,60,0,0.01,0,"stable",FALSE,TRUE,"2/3","1/3",100,"A",0,10,0.01,TRUE,"[.25,.5,.75,1,1.25,1.5,1.75]",45.4
"329",5,1,"1","2016-05-10 14:10:28.600",14629146286,"state",0.25,"1",1,0.25,-1,33.3333333333333,"[[1,2,3,4],[5,6,7,8]]",1000,0,60,0,0.01,0,"stable",FALSE,TRUE,"2/3","1/3",100,"A",0,10,0.01,TRUE,"[.25,.5,.75,1,1.25,1.5,1.75]",46.6
"330",5,1,"1","2016-05-10 14:10:28.600",14629146286,"state",0.5,"2",2,0.5,-1,55.5555555555556,"[[1,2,3,4],[5,6,7,8]]",1000,0,60,0,0.01,0,"stable",FALSE,TRUE,"2/3","1/3",100,"A",0,10,0.01,TRUE,"[.25,.5,.75,1,1.25,1.5,1.75]",46.6
"331",5,1,"1","2016-05-10 14:10:28.600",14629146286,"state",0.75,"3",3,0.75,-1,66.6666666666667,"[[1,2,3,4],[5,6,7,8]]",1000,0,60,0,0.01,0,"stable",FALSE,TRUE,"2/3","1/3",100,"A",0,10,0.01,TRUE,"[.25,.5,.75,1,1.25,1.5,1.75]",46.6
"332",5,1,"1","2016-05-10 14:10:28.600",14629146286,"state",1,"4",4,1,-1,66.6666666666667,"[[1,2,3,4],[5,6,7,8]]",1000,0,60,0,0.01,0,"stable",FALSE,TRUE,"2/3","1/3",100,"A",0,10,0.01,TRUE,"[.25,.5,.75,1,1.25,1.5,1.75]",46.6
"333",5,1,"1","2016-05-10 14:10:29.900",14629146299,"state",0.25,"1",1,0.25,-1,33.3333333333333,"[[1,2,3,4],[5,6,7,8]]",1000,0,60,0,0.01,0,"stable",FALSE,TRUE,"2/3","1/3",100,"A",0,10,0.01,TRUE,"[.25,.5,.75,1,1.25,1.5,1.75]",47.9
"334",5,1,"1","2016-05-10 14:10:29.900",14629146299,"state",0.5,"2",2,0.5,-1,55.5555555555556,"[[1,2,3,4],[5,6,7,8]]",1000,0,60,0,0.01,0,"stable",FALSE,TRUE,"2/3","1/3",100,"A",0,10,0.01,TRUE,"[.25,.5,.75,1,1.25,1.5,1.75]",47.9
"335",5,1,"1","2016-05-10 14:10:29.900",14629146299,"state",0.75,"3",3,0.75,-1,66.6666666666667,"[[1,2,3,4],[5,6,7,8]]",1000,0,60,0,0.01,0,"stable",FALSE,TRUE,"2/3","1/3",100,"A",0,10,0.01,TRUE,"[.25,.5,.75,1,1.25,1.5,1.75]",47.9
"336",5,1,"1","2016-05-10 14:10:29.900",14629146299,"state",1,"4",4,1,-1,66.6666666666667,"[[1,2,3,4],[5,6,7,8]]",1000,0,60,0,0.01,0,"stable",FALSE,TRUE,"2/3","1/3",100,"A",0,10,0.01,TRUE,"[.25,.5,.75,1,1.25,1.5,1.75]",47.9
"337",5,1,"1","2016-05-10 14:10:31.100",14629146311,"state",0.25,"1",1,0.25,-1,33.3333333333333,"[[1,2,3,4],[5,6,7,8]]",1000,0,60,0,0.01,0,"stable",FALSE,TRUE,"2/3","1/3",100,"A",0,10,0.01,TRUE,"[.25,.5,.75,1,1.25,1.5,1.75]",49.1
"338",5,1,"1","2016-05-10 14:10:31.100",14629146311,"state",0.5,"2",2,0.5,-1,55.5555555555556,"[[1,2,3,4],[5,6,7,8]]",1000,0,60,0,0.01,0,"stable",FALSE,TRUE,"2/3","1/3",100,"A",0,10,0.01,TRUE,"[.25,.5,.75,1,1.25,1.5,1.75]",49.1
"339",5,1,"1","2016-05-10 14:10:31.100",14629146311,"state",0.75,"3",3,0.75,-1,66.6666666666667,"[[1,2,3,4],[5,6,7,8]]",1000,0,60,0,0.01,0,"stable",FALSE,TRUE,"2/3","1/3",100,"A",0,10,0.01,TRUE,"[.25,.5,.75,1,1.25,1.5,1.75]",49.1
"340",5,1,"1","2016-05-10 14:10:31.100",14629146311,"state",1,"4",4,1,-1,66.6666666666667,"[[1,2,3,4],[5,6,7,8]]",1000,0,60,0,0.01,0,"stable",FALSE,TRUE,"2/3","1/3",100,"A",0,10,0.01,TRUE,"[.25,.5,.75,1,1.25,1.5,1.75]",49.1
"341",5,1,"1","2016-05-10 14:10:32.299",14629146323,"state",0.25,"1",1,0.25,-1,33.3333333333333,"[[1,2,3,4],[5,6,7,8]]",1000,0,60,0,0.01,0,"stable",FALSE,TRUE,"2/3","1/3",100,"A",0,10,0.01,TRUE,"[.25,.5,.75,1,1.25,1.5,1.75]",50.3
"342",5,1,"1","2016-05-10 14:10:32.299",14629146323,"state",0.5,"2",2,0.5,-1,55.5555555555556,"[[1,2,3,4],[5,6,7,8]]",1000,0,60,0,0.01,0,"stable",FALSE,TRUE,"2/3","1/3",100,"A",0,10,0.01,TRUE,"[.25,.5,.75,1,1.25,1.5,1.75]",50.3
"343",5,1,"1","2016-05-10 14:10:32.299",14629146323,"state",0.75,"3",3,0.75,-1,66.6666666666667,"[[1,2,3,4],[5,6,7,8]]",1000,0,60,0,0.01,0,"stable",FALSE,TRUE,"2/3","1/3",100,"A",0,10,0.01,TRUE,"[.25,.5,.75,1,1.25,1.5,1.75]",50.3
"344",5,1,"1","2016-05-10 14:10:32.299",14629146323,"state",1,"4",4,1,-1,66.6666666666667,"[[1,2,3,4],[5,6,7,8]]",1000,0,60,0,0.01,0,"stable",FALSE,TRUE,"2/3","1/3",100,"A",0,10,0.01,TRUE,"[.25,.5,.75,1,1.25,1.5,1.75]",50.3
"345",5,1,"1","2016-05-10 14:10:33.500",14629146335,"state",0.25,"1",1,0.25,-1,33.3333333333333,"[[1,2,3,4],[5,6,7,8]]",1000,0,60,0,0.01,0,"stable",FALSE,TRUE,"2/3","1/3",100,"A",0,10,0.01,TRUE,"[.25,.5,.75,1,1.25,1.5,1.75]",51.5
"346",5,1,"1","2016-05-10 14:10:33.500",14629146335,"state",0.5,"2",2,0.5,-1,55.5555555555556,"[[1,2,3,4],[5,6,7,8]]",1000,0,60,0,0.01,0,"stable",FALSE,TRUE,"2/3","1/3",100,"A",0,10,0.01,TRUE,"[.25,.5,.75,1,1.25,1.5,1.75]",51.5
"347",5,1,"1","2016-05-10 14:10:33.500",14629146335,"state",0.75,"3",3,0.75,-1,66.6666666666667,"[[1,2,3,4],[5,6,7,8]]",1000,0,60,0,0.01,0,"stable",FALSE,TRUE,"2/3","1/3",100,"A",0,10,0.01,TRUE,"[.25,.5,.75,1,1.25,1.5,1.75]",51.5
"348",5,1,"1","2016-05-10 14:10:33.500",14629146335,"state",1,"4",4,1,-1,66.6666666666667,"[[1,2,3,4],[5,6,7,8]]",1000,0,60,0,0.01,0,"stable",FALSE,TRUE,"2/3","1/3",100,"A",0,10,0.01,TRUE,"[.25,.5,.75,1,1.25,1.5,1.75]",51.5
"349",5,1,"1","2016-05-10 14:10:34.800",14629146348,"state",0.25,"1",1,0.25,-1,33.3333333333333,"[[1,2,3,4],[5,6,7,8]]",1000,0,60,0,0.01,0,"stable",FALSE,TRUE,"2/3","1/3",100,"A",0,10,0.01,TRUE,"[.25,.5,.75,1,1.25,1.5,1.75]",52.8
"350",5,1,"1","2016-05-10 14:10:34.800",14629146348,"state",0.5,"2",2,0.5,-1,55.5555555555556,"[[1,2,3,4],[5,6,7,8]]",1000,0,60,0,0.01,0,"stable",FALSE,TRUE,"2/3","1/3",100,"A",0,10,0.01,TRUE,"[.25,.5,.75,1,1.25,1.5,1.75]",52.8
"351",5,1,"1","2016-05-10 14:10:34.800",14629146348,"state",0.75,"3",3,0.75,-1,66.6666666666667,"[[1,2,3,4],[5,6,7,8]]",1000,0,60,0,0.01,0,"stable",FALSE,TRUE,"2/3","1/3",100,"A",0,10,0.01,TRUE,"[.25,.5,.75,1,1.25,1.5,1.75]",52.8
"352",5,1,"1","2016-05-10 14:10:34.800",14629146348,"state",1,"4",4,1,-1,66.6666666666667,"[[1,2,3,4],[5,6,7,8]]",1000,0,60,0,0.01,0,"stable",FALSE,TRUE,"2/3","1/3",100,"A",0,10,0.01,TRUE,"[.25,.5,.75,1,1.25,1.5,1.75]",52.8
"353",5,1,"1","2016-05-10 14:10:36.000",14629146360,"state",0.25,"1",1,0.25,-1,33.3333333333333,"[[1,2,3,4],[5,6,7,8]]",1000,0,60,0,0.01,0,"stable",FALSE,TRUE,"2/3","1/3",100,"A",0,10,0.01,TRUE,"[.25,.5,.75,1,1.25,1.5,1.75]",54
"354",5,1,"1","2016-05-10 14:10:36.000",14629146360,"state",0.5,"2",2,0.5,-1,55.5555555555556,"[[1,2,3,4],[5,6,7,8]]",1000,0,60,0,0.01,0,"stable",FALSE,TRUE,"2/3","1/3",100,"A",0,10,0.01,TRUE,"[.25,.5,.75,1,1.25,1.5,1.75]",54
"355",5,1,"1","2016-05-10 14:10:36.000",14629146360,"state",0.75,"3",3,0.75,-1,66.6666666666667,"[[1,2,3,4],[5,6,7,8]]",1000,0,60,0,0.01,0,"stable",FALSE,TRUE,"2/3","1/3",100,"A",0,10,0.01,TRUE,"[.25,.5,.75,1,1.25,1.5,1.75]",54
"356",5,1,"1","2016-05-10 14:10:36.000",14629146360,"state",1,"4",4,1,-1,66.6666666666667,"[[1,2,3,4],[5,6,7,8]]",1000,0,60,0,0.01,0,"stable",FALSE,TRUE,"2/3","1/3",100,"A",0,10,0.01,TRUE,"[.25,.5,.75,1,1.25,1.5,1.75]",54
"357",5,1,"1","2016-05-10 14:10:37.200",14629146372,"state",0.25,"1",1,0.25,-1,33.3333333333333,"[[1,2,3,4],[5,6,7,8]]",1000,0,60,0,0.01,0,"stable",FALSE,TRUE,"2/3","1/3",100,"A",0,10,0.01,TRUE,"[.25,.5,.75,1,1.25,1.5,1.75]",55.2
"358",5,1,"1","2016-05-10 14:10:37.200",14629146372,"state",0.5,"2",2,0.5,-1,55.5555555555556,"[[1,2,3,4],[5,6,7,8]]",1000,0,60,0,0.01,0,"stable",FALSE,TRUE,"2/3","1/3",100,"A",0,10,0.01,TRUE,"[.25,.5,.75,1,1.25,1.5,1.75]",55.2
"359",5,1,"1","2016-05-10 14:10:37.200",14629146372,"state",0.75,"3",3,0.75,-1,66.6666666666667,"[[1,2,3,4],[5,6,7,8]]",1000,0,60,0,0.01,0,"stable",FALSE,TRUE,"2/3","1/3",100,"A",0,10,0.01,TRUE,"[.25,.5,.75,1,1.25,1.5,1.75]",55.2
"360",5,1,"1","2016-05-10 14:10:37.200",14629146372,"state",1,"4",4,1,-1,66.6666666666667,"[[1,2,3,4],[5,6,7,8]]",1000,0,60,0,0.01,0,"stable",FALSE,TRUE,"2/3","1/3",100,"A",0,10,0.01,TRUE,"[.25,.5,.75,1,1.25,1.5,1.75]",55.2
"361",5,1,"1","2016-05-10 14:10:38.500",14629146385,"state",0.25,"1",1,0.25,-1,33.3333333333333,"[[1,2,3,4],[5,6,7,8]]",1000,0,60,0,0.01,0,"stable",FALSE,TRUE,"2/3","1/3",100,"A",0,10,0.01,TRUE,"[.25,.5,.75,1,1.25,1.5,1.75]",56.5
"362",5,1,"1","2016-05-10 14:10:38.500",14629146385,"state",0.5,"2",2,0.5,-1,55.5555555555556,"[[1,2,3,4],[5,6,7,8]]",1000,0,60,0,0.01,0,"stable",FALSE,TRUE,"2/3","1/3",100,"A",0,10,0.01,TRUE,"[.25,.5,.75,1,1.25,1.5,1.75]",56.5
"363",5,1,"1","2016-05-10 14:10:38.500",14629146385,"state",0.75,"3",3,0.75,-1,66.6666666666667,"[[1,2,3,4],[5,6,7,8]]",1000,0,60,0,0.01,0,"stable",FALSE,TRUE,"2/3","1/3",100,"A",0,10,0.01,TRUE,"[.25,.5,.75,1,1.25,1.5,1.75]",56.5
"364",5,1,"1","2016-05-10 14:10:38.500",14629146385,"state",1,"4",4,1,-1,66.6666666666667,"[[1,2,3,4],[5,6,7,8]]",1000,0,60,0,0.01,0,"stable",FALSE,TRUE,"2/3","1/3",100,"A",0,10,0.01,TRUE,"[.25,.5,.75,1,1.25,1.5,1.75]",56.5
"365",5,1,"1","2016-05-10 14:10:39.700",14629146397,"state",0.25,"1",1,0.25,-1,33.3333333333333,"[[1,2,3,4],[5,6,7,8]]",1000,0,60,0,0.01,0,"stable",FALSE,TRUE,"2/3","1/3",100,"A",0,10,0.01,TRUE,"[.25,.5,.75,1,1.25,1.5,1.75]",57.7
"366",5,1,"1","2016-05-10 14:10:39.700",14629146397,"state",0.93,"2",2,0.54,-1,58.8888888888889,"[[1,2,3,4],[5,6,7,8]]",1000,0,60,0,0.01,0,"stable",FALSE,TRUE,"2/3","1/3",100,"A",0,10,0.01,TRUE,"[.25,.5,.75,1,1.25,1.5,1.75]",57.7
"367",5,1,"1","2016-05-10 14:10:39.700",14629146397,"state",0.83,"3",3,0.79,-1,69.3333333333333,"[[1,2,3,4],[5,6,7,8]]",1000,0,60,0,0.01,0,"stable",FALSE,TRUE,"2/3","1/3",100,"A",0,10,0.01,TRUE,"[.25,.5,.75,1,1.25,1.5,1.75]",57.7
"368",5,1,"1","2016-05-10 14:10:39.700",14629146397,"state",1,"4",4,1,-1,66.6666666666667,"[[1,2,3,4],[5,6,7,8]]",1000,0,60,0,0.01,0,"stable",FALSE,TRUE,"2/3","1/3",100,"A",0,10,0.01,TRUE,"[.25,.5,.75,1,1.25,1.5,1.75]",57.7
"369",5,1,"1","2016-05-10 14:10:41.000",14629146410,"state",8.35,"1",1,0.29,-1,38.6666666666667,"[[1,2,3,4],[5,6,7,8]]",1000,0,60,0,0.01,0,"stable",FALSE,TRUE,"2/3","1/3",100,"A",0,10,0.01,TRUE,"[.25,.5,.75,1,1.25,1.5,1.75]",59
"370",5,1,"1","2016-05-10 14:10:41.000",14629146410,"state",8.96,"2",2,0.6,-1,65.5555555555556,"[[1,2,3,4],[5,6,7,8]]",1000,0,60,0,0.01,0,"stable",FALSE,TRUE,"2/3","1/3",100,"A",0,10,0.01,TRUE,"[.25,.5,.75,1,1.25,1.5,1.75]",59
"371",5,1,"1","2016-05-10 14:10:41.000",14629146410,"state",4.25,"3",3,0.85,-1,74.6666666666667,"[[1,2,3,4],[5,6,7,8]]",1000,0,60,0,0.01,0,"stable",FALSE,TRUE,"2/3","1/3",100,"A",0,10,0.01,TRUE,"[.25,.5,.75,1,1.25,1.5,1.75]",59
"372",5,1,"1","2016-05-10 14:10:41.000",14629146410,"state",1,"4",4,1,-1,66.6666666666667,"[[1,2,3,4],[5,6,7,8]]",1000,0,60,0,0.01,0,"stable",FALSE,TRUE,"2/3","1/3",100,"A",0,10,0.01,TRUE,"[.25,.5,.75,1,1.25,1.5,1.75]",59
"373",5,1,"1","2016-05-10 14:10:42.200",14629146422,"state",5.98,"1",1,0.35,-1,46.6666666666667,"[[1,2,3,4],[5,6,7,8]]",1000,0,60,0,0.01,0,"stable",FALSE,TRUE,"2/3","1/3",100,"A",0,10,0.01,TRUE,"[.25,.5,.75,1,1.25,1.5,1.75]",60.2
"374",5,1,"1","2016-05-10 14:10:42.200",14629146422,"state",8.96,"2",2,0.66,-1,72.2222222222222,"[[1,2,3,4],[5,6,7,8]]",1000,0,60,0,0.01,0,"stable",FALSE,TRUE,"2/3","1/3",100,"A",0,10,0.01,TRUE,"[.25,.5,.75,1,1.25,1.5,1.75]",60.2
"375",5,1,"1","2016-05-10 14:10:42.200",14629146422,"state",1.84,"3",3,0.91,-1,80,"[[1,2,3,4],[5,6,7,8]]",1000,0,60,0,0.01,0,"stable",FALSE,TRUE,"2/3","1/3",100,"A",0,10,0.01,TRUE,"[.25,.5,.75,1,1.25,1.5,1.75]",60.2
"376",5,1,"1","2016-05-10 14:10:42.200",14629146422,"state",0.38,"4",4,1.04,-1,70,"[[1,2,3,4],[5,6,7,8]]",1000,0,60,0,0.01,0,"stable",FALSE,TRUE,"2/3","1/3",100,"A",0,10,0.01,TRUE,"[.25,.5,.75,1,1.25,1.5,1.75]",60.2
"377",6,1,"1","2016-05-10 14:10:54.100",14629146541,"state",0.25,"1",1,0.25,-1,33.3333333333333,"[[1,2,3,4],[5,6,7,8]]",1000,0,60,0,0.05,0,"stable",FALSE,TRUE,"2/3","1/3",100,"A",0,10,0.01,TRUE,"[.25,.5,.75,1,1.25,1.5,1.75]",0
"378",6,1,"1","2016-05-10 14:10:54.100",14629146541,"state",0.87,"2",2,0.65,-1,66.6666666666667,"[[1,2,3,4],[5,6,7,8]]",1000,0,60,0,0.05,0,"stable",FALSE,TRUE,"2/3","1/3",100,"A",0,10,0.01,TRUE,"[.25,.5,.75,1,1.25,1.5,1.75]",0
"379",6,1,"1","2016-05-10 14:10:54.100",14629146541,"state",7.78,"3",3,0.85,-1,71.1111111111111,"[[1,2,3,4],[5,6,7,8]]",1000,0,60,0,0.05,0,"stable",FALSE,TRUE,"2/3","1/3",100,"A",0,10,0.01,TRUE,"[.25,.5,.75,1,1.25,1.5,1.75]",0
"380",6,1,"1","2016-05-10 14:10:54.100",14629146541,"state",7.89,"4",4,1.15,-1,73.3333333333333,"[[1,2,3,4],[5,6,7,8]]",1000,0,60,0,0.05,0,"stable",FALSE,TRUE,"2/3","1/3",100,"A",0,10,0.01,TRUE,"[.25,.5,.75,1,1.25,1.5,1.75]",0
"381",6,1,"1","2016-05-10 14:10:55.300",14629146553,"state",0.25,"1",1,0.25,-1,33.3333333333333,"[[1,2,3,4],[5,6,7,8]]",1000,0,60,0,0.05,0,"stable",FALSE,TRUE,"2/3","1/3",100,"A",0,10,0.01,TRUE,"[.25,.5,.75,1,1.25,1.5,1.75]",1.2
"382",6,1,"1","2016-05-10 14:10:55.300",14629146553,"state",5.84,"2",2,0.95,-1,100,"[[1,2,3,4],[5,6,7,8]]",1000,0,60,0,0.05,0,"stable",FALSE,TRUE,"2/3","1/3",100,"A",0,10,0.01,TRUE,"[.25,.5,.75,1,1.25,1.5,1.75]",1.2
"383",6,1,"1","2016-05-10 14:10:55.300",14629146553,"state",4.06,"3",3,1.15,-1,97.7777777777778,"[[1,2,3,4],[5,6,7,8]]",1000,0,60,0,0.05,0,"stable",FALSE,TRUE,"2/3","1/3",100,"A",0,10,0.01,TRUE,"[.25,.5,.75,1,1.25,1.5,1.75]",1.2
"384",6,1,"1","2016-05-10 14:10:55.300",14629146553,"state",3.24,"4",4,1.45,-1,93.3333333333333,"[[1,2,3,4],[5,6,7,8]]",1000,0,60,0,0.05,0,"stable",FALSE,TRUE,"2/3","1/3",100,"A",0,10,0.01,TRUE,"[.25,.5,.75,1,1.25,1.5,1.75]",1.2
"385",6,1,"1","2016-05-10 14:10:56.600",14629146566,"state",5.92,"1",1,0.4,-1,53.3333333333333,"[[1,2,3,4],[5,6,7,8]]",1000,0,60,0,0.05,0,"stable",FALSE,TRUE,"2/3","1/3",100,"A",0,10,0.01,TRUE,"[.25,.5,.75,1,1.25,1.5,1.75]",2.5
"386",6,1,"1","2016-05-10 14:10:56.600",14629146566,"state",5.5,"2",2,1.25,-1,133.333333333333,"[[1,2,3,4],[5,6,7,8]]",1000,0,60,0,0.05,0,"stable",FALSE,TRUE,"2/3","1/3",100,"A",0,10,0.01,TRUE,"[.25,.5,.75,1,1.25,1.5,1.75]",2.5
"387",6,1,"1","2016-05-10 14:10:56.600",14629146566,"state",8.98,"3",3,1.45,-1,124.444444444444,"[[1,2,3,4],[5,6,7,8]]",1000,0,60,0,0.05,0,"stable",FALSE,TRUE,"2/3","1/3",100,"A",0,10,0.01,TRUE,"[.25,.5,.75,1,1.25,1.5,1.75]",2.5
"388",6,1,"1","2016-05-10 14:10:56.600",14629146566,"state",3.72,"4",4,1.75,-1,113.333333333333,"[[1,2,3,4],[5,6,7,8]]",1000,0,60,0,0.05,0,"stable",FALSE,TRUE,"2/3","1/3",100,"A",0,10,0.01,TRUE,"[.25,.5,.75,1,1.25,1.5,1.75]",2.5
"389",6,1,"1","2016-05-10 14:10:57.800",14629146578,"state",7.59,"1",1,0.7,-1,93.3333333333333,"[[1,2,3,4],[5,6,7,8]]",1000,0,60,0,0.05,0,"stable",FALSE,TRUE,"2/3","1/3",100,"A",0,10,0.01,TRUE,"[.25,.5,.75,1,1.25,1.5,1.75]",3.7
"390",6,1,"1","2016-05-10 14:10:57.800",14629146578,"state",1.82,"2",2,1.55,-1,133.333333333333,"[[1,2,3,4],[5,6,7,8]]",1000,0,60,0,0.05,0,"stable",FALSE,TRUE,"2/3","1/3",100,"A",0,10,0.01,TRUE,"[.25,.5,.75,1,1.25,1.5,1.75]",3.7
"391",6,1,"1","2016-05-10 14:10:57.800",14629146578,"state",4.46,"3",3,1.55,-1,166.666666666667,"[[1,2,3,4],[5,6,7,8]]",1000,0,60,0,0.05,0,"stable",FALSE,TRUE,"2/3","1/3",100,"A",0,10,0.01,TRUE,"[.25,.5,.75,1,1.25,1.5,1.75]",3.7
"392",6,1,"1","2016-05-10 14:10:57.800",14629146578,"state",3.72,"4",4,2.05,-1,133.333333333333,"[[1,2,3,4],[5,6,7,8]]",1000,0,60,0,0.05,0,"stable",FALSE,TRUE,"2/3","1/3",100,"A",0,10,0.01,TRUE,"[.25,.5,.75,1,1.25,1.5,1.75]",3.7
"393",6,1,"1","2016-05-10 14:10:59.000",14629146590,"state",2.73,"1",1,1,-1,133.333333333333,"[[1,2,3,4],[5,6,7,8]]",1000,0,60,0,0.05,0,"stable",FALSE,TRUE,"2/3","1/3",100,"A",0,10,0.01,TRUE,"[.25,.5,.75,1,1.25,1.5,1.75]",4.9
"394",6,1,"1","2016-05-10 14:10:59.000",14629146590,"state",9.81,"2",2,1.85,-1,160,"[[1,2,3,4],[5,6,7,8]]",1000,0,60,0,0.05,0,"stable",FALSE,TRUE,"2/3","1/3",100,"A",0,10,0.01,TRUE,"[.25,.5,.75,1,1.25,1.5,1.75]",4.9
"395",6,1,"1","2016-05-10 14:10:59.000",14629146590,"state",1.92,"3",3,1.85,-1,200,"[[1,2,3,4],[5,6,7,8]]",1000,0,60,0,0.05,0,"stable",FALSE,TRUE,"2/3","1/3",100,"A",0,10,0.01,TRUE,"[.25,.5,.75,1,1.25,1.5,1.75]",4.9
"396",6,1,"1","2016-05-10 14:10:59.000",14629146590,"state",9.91,"4",4,2.35,-1,153.333333333333,"[[1,2,3,4],[5,6,7,8]]",1000,0,60,0,0.05,0,"stable",FALSE,TRUE,"2/3","1/3",100,"A",0,10,0.01,TRUE,"[.25,.5,.75,1,1.25,1.5,1.75]",4.9
"397",6,1,"1","2016-05-10 14:11:00.200",14629146602,"state",4.88,"1",1,1.3,-1,173.333333333333,"[[1,2,3,4],[5,6,7,8]]",1000,0,60,0,0.05,0,"stable",FALSE,TRUE,"2/3","1/3",100,"A",0,10,0.01,TRUE,"[.25,.5,.75,1,1.25,1.5,1.75]",6.1
"398",6,1,"1","2016-05-10 14:11:00.200",14629146602,"state",9.81,"2",2,2.15,-1,186.666666666667,"[[1,2,3,4],[5,6,7,8]]",1000,0,60,0,0.05,0,"stable",FALSE,TRUE,"2/3","1/3",100,"A",0,10,0.01,TRUE,"[.25,.5,.75,1,1.25,1.5,1.75]",6.1
"399",6,1,"1","2016-05-10 14:11:00.200",14629146602,"state",1.92,"3",3,1.92,-1,213.333333333333,"[[1,2,3,4],[5,6,7,8]]",1000,0,60,0,0.05,0,"stable",FALSE,TRUE,"2/3","1/3",100,"A",0,10,0.01,TRUE,"[.25,.5,.75,1,1.25,1.5,1.75]",6.1
"400",6,1,"1","2016-05-10 14:11:00.200",14629146602,"state",4.63,"4",4,2.65,-1,173.333333333333,"[[1,2,3,4],[5,6,7,8]]",1000,0,60,0,0.05,0,"stable",FALSE,TRUE,"2/3","1/3",100,"A",0,10,0.01,TRUE,"[.25,.5,.75,1,1.25,1.5,1.75]",6.1
"401",6,1,"1","2016-05-10 14:11:01.500",14629146615,"state",7.76,"1",1,1.6,-1,213.333333333333,"[[1,2,3,4],[5,6,7,8]]",1000,0,60,0,0.05,0,"stable",FALSE,TRUE,"2/3","1/3",100,"A",0,10,0.01,TRUE,"[.25,.5,.75,1,1.25,1.5,1.75]",7.4
"402",6,1,"1","2016-05-10 14:11:01.500",14629146615,"state",2.98,"2",2,2.45,-1,213.333333333333,"[[1,2,3,4],[5,6,7,8]]",1000,0,60,0,0.05,0,"stable",FALSE,TRUE,"2/3","1/3",100,"A",0,10,0.01,TRUE,"[.25,.5,.75,1,1.25,1.5,1.75]",7.4
"403",6,1,"1","2016-05-10 14:11:01.500",14629146615,"state",0.74,"3",3,2.07,-1,235.555555555556,"[[1,2,3,4],[5,6,7,8]]",1000,0,60,0,0.05,0,"stable",FALSE,TRUE,"2/3","1/3",100,"A",0,10,0.01,TRUE,"[.25,.5,.75,1,1.25,1.5,1.75]",7.4
"404",6,1,"1","2016-05-10 14:11:01.500",14629146615,"state",0.63,"4",4,2.65,-1,180,"[[1,2,3,4],[5,6,7,8]]",1000,0,60,0,0.05,0,"stable",FALSE,TRUE,"2/3","1/3",100,"A",0,10,0.01,TRUE,"[.25,.5,.75,1,1.25,1.5,1.75]",7.4
"405",6,1,"1","2016-05-10 14:11:02.700",14629146627,"state",7.76,"1",1,1.9,-1,253.333333333334,"[[1,2,3,4],[5,6,7,8]]",1000,0,60,0,0.05,0,"stable",FALSE,TRUE,"2/3","1/3",100,"A",0,10,0.01,TRUE,"[.25,.5,.75,1,1.25,1.5,1.75]",8.6
"406",6,1,"1","2016-05-10 14:11:02.700",14629146627,"state",2.98,"2",2,2.75,-1,180,"[[1,2,3,4],[5,6,7,8]]",1000,0,60,0,0.05,0,"stable",FALSE,TRUE,"2/3","1/3",100,"A",0,10,0.01,TRUE,"[.25,.5,.75,1,1.25,1.5,1.75]",8.6
"407",6,1,"1","2016-05-10 14:11:02.700",14629146627,"state",1.25,"3",3,1.87,-1,213.333333333333,"[[1,2,3,4],[5,6,7,8]]",1000,0,60,0,0.05,0,"stable",FALSE,TRUE,"2/3","1/3",100,"A",0,10,0.01,TRUE,"[.25,.5,.75,1,1.25,1.5,1.75]",8.6
"408",6,1,"1","2016-05-10 14:11:02.700",14629146627,"state",1.46,"4",4,2.35,-1,213.333333333333,"[[1,2,3,4],[5,6,7,8]]",1000,0,60,0,0.05,0,"stable",FALSE,TRUE,"2/3","1/3",100,"A",0,10,0.01,TRUE,"[.25,.5,.75,1,1.25,1.5,1.75]",8.6
"409",6,1,"1","2016-05-10 14:11:03.900",14629146639,"state",5.39,"1",1,2.2,-1,244.444444444444,"[[1,2,3,4],[5,6,7,8]]",1000,0,60,0,0.05,0,"stable",FALSE,TRUE,"2/3","1/3",100,"A",0,10,0.01,TRUE,"[.25,.5,.75,1,1.25,1.5,1.75]",9.8
"410",6,1,"1","2016-05-10 14:11:03.900",14629146639,"state",8.25,"2",2,3.05,-1,200,"[[1,2,3,4],[5,6,7,8]]",1000,0,60,0,0.05,0,"stable",FALSE,TRUE,"2/3","1/3",100,"A",0,10,0.01,TRUE,"[.25,.5,.75,1,1.25,1.5,1.75]",9.8
"411",6,1,"1","2016-05-10 14:11:03.900",14629146639,"state",1.06,"3",3,1.57,-1,216,"[[1,2,3,4],[5,6,7,8]]",1000,0,60,0,0.05,0,"stable",FALSE,TRUE,"2/3","1/3",100,"A",0,10,0.01,TRUE,"[.25,.5,.75,1,1.25,1.5,1.75]",9.8
"412",6,1,"1","2016-05-10 14:11:03.900",14629146639,"state",3.57,"4",4,2.55,-1,222.222222222222,"[[1,2,3,4],[5,6,7,8]]",1000,0,60,0,0.05,0,"stable",FALSE,TRUE,"2/3","1/3",100,"A",0,10,0.01,TRUE,"[.25,.5,.75,1,1.25,1.5,1.75]",9.8
"413",6,1,"1","2016-05-10 14:11:05.200",14629146652,"state",0.57,"1",1,2.4,-1,266.666666666667,"[[1,2,3,4],[5,6,7,8]]",1000,0,60,0,0.05,0,"stable",FALSE,TRUE,"2/3","1/3",100,"A",0,10,0.01,TRUE,"[.25,.5,.75,1,1.25,1.5,1.75]",11.1
"414",6,1,"1","2016-05-10 14:11:05.200",14629146652,"state",4.38,"2",2,3.35,-1,220,"[[1,2,3,4],[5,6,7,8]]",1000,0,60,0,0.05,0,"stable",FALSE,TRUE,"2/3","1/3",100,"A",0,10,0.01,TRUE,"[.25,.5,.75,1,1.25,1.5,1.75]",11.1
"415",6,1,"1","2016-05-10 14:11:05.200",14629146652,"state",1.06,"3",3,1.27,-1,176,"[[1,2,3,4],[5,6,7,8]]",1000,0,60,0,0.05,0,"stable",FALSE,TRUE,"2/3","1/3",100,"A",0,10,0.01,TRUE,"[.25,.5,.75,1,1.25,1.5,1.75]",11.1
"416",6,1,"1","2016-05-10 14:11:05.200",14629146652,"state",7.61,"4",4,2.85,-1,248.888888888889,"[[1,2,3,4],[5,6,7,8]]",1000,0,60,0,0.05,0,"stable",FALSE,TRUE,"2/3","1/3",100,"A",0,10,0.01,TRUE,"[.25,.5,.75,1,1.25,1.5,1.75]",11.1
"417",6,1,"1","2016-05-10 14:11:06.400",14629146664,"state",8.22,"1",1,2.7,-1,300,"[[1,2,3,4],[5,6,7,8]]",1000,0,60,0,0.05,0,"stable",FALSE,TRUE,"2/3","1/3",100,"A",0,10,0.01,TRUE,"[.25,.5,.75,1,1.25,1.5,1.75]",12.3
"418",6,1,"1","2016-05-10 14:11:06.400",14629146664,"state",6,"2",2,3.65,-1,240,"[[1,2,3,4],[5,6,7,8]]",1000,0,60,0,0.05,0,"stable",FALSE,TRUE,"2/3","1/3",100,"A",0,10,0.01,TRUE,"[.25,.5,.75,1,1.25,1.5,1.75]",12.3
"419",6,1,"1","2016-05-10 14:11:06.400",14629146664,"state",5.62,"3",3,1.17,-1,149.333333333333,"[[1,2,3,4],[5,6,7,8]]",1000,0,60,0,0.05,0,"stable",FALSE,TRUE,"2/3","1/3",100,"A",0,10,0.01,TRUE,"[.25,.5,.75,1,1.25,1.5,1.75]",12.3
"420",6,1,"1","2016-05-10 14:11:06.400",14629146664,"state",8.73,"4",4,3.15,-1,275.555555555555,"[[1,2,3,4],[5,6,7,8]]",1000,0,60,0,0.05,0,"stable",FALSE,TRUE,"2/3","1/3",100,"A",0,10,0.01,TRUE,"[.25,.5,.75,1,1.25,1.5,1.75]",12.3
"421",6,1,"1","2016-05-10 14:11:07.600",14629146676,"state",5.64,"1",1,2.7,-1,300,"[[1,2,3,4],[5,6,7,8]]",1000,0,60,0,0.05,0,"stable",FALSE,TRUE,"2/3","1/3",100,"A",0,10,0.01,TRUE,"[.25,.5,.75,1,1.25,1.5,1.75]",13.5
"422",6,1,"1","2016-05-10 14:11:07.600",14629146676,"state",3.68,"2",2,3.68,-1,245.333333333333,"[[1,2,3,4],[5,6,7,8]]",1000,0,60,0,0.05,0,"stable",FALSE,TRUE,"2/3","1/3",100,"A",0,10,0.01,TRUE,"[.25,.5,.75,1,1.25,1.5,1.75]",13.5
"423",6,1,"1","2016-05-10 14:11:07.600",14629146676,"state",3.07,"3",3,1.47,-1,189.333333333333,"[[1,2,3,4],[5,6,7,8]]",1000,0,60,0,0.05,0,"stable",FALSE,TRUE,"2/3","1/3",100,"A",0,10,0.01,TRUE,"[.25,.5,.75,1,1.25,1.5,1.75]",13.5
"424",6,1,"1","2016-05-10 14:11:07.600",14629146676,"state",9.37,"4",4,3.05,-1,266.666666666666,"[[1,2,3,4],[5,6,7,8]]",1000,0,60,0,0.05,0,"stable",FALSE,TRUE,"2/3","1/3",100,"A",0,10,0.01,TRUE,"[.25,.5,.75,1,1.25,1.5,1.75]",13.5
"425",6,1,"1","2016-05-10 14:11:08.900",14629146689,"state",8.98,"1",1,3,-1,333.333333333333,"[[1,2,3,4],[5,6,7,8]]",1000,0,60,0,0.05,0,"stable",FALSE,TRUE,"2/3","1/3",100,"A",0,10,0.01,TRUE,"[.25,.5,.75,1,1.25,1.5,1.75]",14.8
"426",6,1,"1","2016-05-10 14:11:08.900",14629146689,"state",9.56,"2",2,3.68,-1,242,"[[1,2,3,4],[5,6,7,8]]",1000,0,60,0,0.05,0,"stable",FALSE,TRUE,"2/3","1/3",100,"A",0,10,0.01,TRUE,"[.25,.5,.75,1,1.25,1.5,1.75]",14.8
"427",6,1,"1","2016-05-10 14:11:08.900",14629146689,"state",2.14,"3",3,1.67,-1,216,"[[1,2,3,4],[5,6,7,8]]",1000,0,60,0,0.05,0,"stable",FALSE,TRUE,"2/3","1/3",100,"A",0,10,0.01,TRUE,"[.25,.5,.75,1,1.25,1.5,1.75]",14.8
"428",6,1,"1","2016-05-10 14:11:08.900",14629146689,"state",8.99,"4",4,3.35,-1,293.333333333333,"[[1,2,3,4],[5,6,7,8]]",1000,0,60,0,0.05,0,"stable",FALSE,TRUE,"2/3","1/3",100,"A",0,10,0.01,TRUE,"[.25,.5,.75,1,1.25,1.5,1.75]",14.8
"429",6,1,"1","2016-05-10 14:11:10.100",14629146701,"state",8.98,"1",1,3.3,-1,366.666666666666,"[[1,2,3,4],[5,6,7,8]]",1000,0,60,0,0.05,0,"stable",FALSE,TRUE,"2/3","1/3",100,"A",0,10,0.01,TRUE,"[.25,.5,.75,1,1.25,1.5,1.75]",16
"430",6,1,"1","2016-05-10 14:11:10.100",14629146701,"state",0.38,"2",2,3.78,-1,255.333333333333,"[[1,2,3,4],[5,6,7,8]]",1000,0,60,0,0.05,0,"stable",FALSE,TRUE,"2/3","1/3",100,"A",0,10,0.01,TRUE,"[.25,.5,.75,1,1.25,1.5,1.75]",16
"431",6,1,"1","2016-05-10 14:11:10.100",14629146701,"state",8.69,"3",3,1.97,-1,256,"[[1,2,3,4],[5,6,7,8]]",1000,0,60,0,0.05,0,"stable",FALSE,TRUE,"2/3","1/3",100,"A",0,10,0.01,TRUE,"[.25,.5,.75,1,1.25,1.5,1.75]",16
"432",6,1,"1","2016-05-10 14:11:10.100",14629146701,"state",8.99,"4",4,3.65,-1,320,"[[1,2,3,4],[5,6,7,8]]",1000,0,60,0,0.05,0,"stable",FALSE,TRUE,"2/3","1/3",100,"A",0,10,0.01,TRUE,"[.25,.5,.75,1,1.25,1.5,1.75]",16
"433",6,1,"1","2016-05-10 14:11:11.300",14629146713,"state",5.88,"1",1,3.54,-1,393.333333333333,"[[1,2,3,4],[5,6,7,8]]",1000,0,60,0,0.05,0,"stable",FALSE,TRUE,"2/3","1/3",100,"A",0,10,0.01,TRUE,"[.25,.5,.75,1,1.25,1.5,1.75]",17.2
"434",6,1,"1","2016-05-10 14:11:11.300",14629146713,"state",2.24,"2",2,3.98,-1,268.666666666667,"[[1,2,3,4],[5,6,7,8]]",1000,0,60,0,0.05,0,"stable",FALSE,TRUE,"2/3","1/3",100,"A",0,10,0.01,TRUE,"[.25,.5,.75,1,1.25,1.5,1.75]",17.2
"435",6,1,"1","2016-05-10 14:11:11.300",14629146713,"state",2.07,"3",3,1.87,-1,242.666666666667,"[[1,2,3,4],[5,6,7,8]]",1000,0,60,0,0.05,0,"stable",FALSE,TRUE,"2/3","1/3",100,"A",0,10,0.01,TRUE,"[.25,.5,.75,1,1.25,1.5,1.75]",17.2
"436",6,1,"1","2016-05-10 14:11:11.300",14629146713,"state",8.99,"4",4,3.94999999999999,-1,346.666666666666,"[[1,2,3,4],[5,6,7,8]]",1000,0,60,0,0.05,0,"stable",FALSE,TRUE,"2/3","1/3",100,"A",0,10,0.01,TRUE,"[.25,.5,.75,1,1.25,1.5,1.75]",17.2
"437",6,1,"1","2016-05-10 14:11:12.500",14629146725,"state",5.88,"1",1,3.84,-1,341.333333333333,"[[1,2,3,4],[5,6,7,8]]",1000,0,60,0,0.05,0,"stable",FALSE,TRUE,"2/3","1/3",100,"A",0,10,0.01,TRUE,"[.25,.5,.75,1,1.25,1.5,1.75]",18.4
"438",6,1,"1","2016-05-10 14:11:12.500",14629146725,"state",3.55,"2",2,3.68,-1,414.444444444445,"[[1,2,3,4],[5,6,7,8]]",1000,0,60,0,0.05,0,"stable",FALSE,TRUE,"2/3","1/3",100,"A",0,10,0.01,TRUE,"[.25,.5,.75,1,1.25,1.5,1.75]",18.4
