"","Period","Group","Sender","datetime","Time","Key","target","state.subjectid","state.rank","state.action","state.subperiodNumber","state.payoff","config.groups","config.ymax","config.ymin","config.period_length_s","config.num_sub_periods","config.step","config.snap","config.payoff","config.hidePayoffs","config.payoffProjection","config.q1","config.q2","config.mu","config.payoffLabel","config.minX","config.maxX","config.adjustAccuracy","config.actionHistory","config.initialActions","Time.Period"
"1",1,2,"5","2016-05-10 14:04:52.800",14629142928,"state",0.25,"1",1,0.25,0,33.3333333333333,"[[1,2,3,4],[5,6,7,8]]",1000,0,60,10,0,0,"stable",TRUE,TRUE,"2/3","1/3",100,"A",0,10,0.01,TRUE,"[.25,.5,.75,1,1.25,1.5,1.75]",0
"2",1,2,"5","2016-05-10 14:04:52.800",14629142928,"state",0.5,"2",2,0.5,0,55.5555555555556,"[[1,2,3,4],[5,6,7,8]]",1000,0,60,10,0,0,"stable",TRUE,TRUE,"2/3","1/3",100,"A",0,10,0.01,TRUE,"[.25,.5,.75,1,1.25,1.5,1.75]",0
"3",1,2,"5","2016-05-10 14:04:52.800",14629142928,"state",0.75,"3",3,0.75,0,66.6666666666667,"[[1,2,3,4],[5,6,7,8]]",1000,0,60,10,0,0,"stable",TRUE,TRUE,"2/3","1/3",100,"A",0,10,0.01,TRUE,"[.25,.5,.75,1,1.25,1.5,1.75]",0
"4",1,2,"5","2016-05-10 14:04:52.800",14629142928,"state",1,"4",4,1,0,66.6666666666667,"[[1,2,3,4],[5,6,7,8]]",1000,0,60,10,0,0,"stable",TRUE,TRUE,"2/3","1/3",100,"A",0,10,0.01,TRUE,"[.25,.5,.75,1,1.25,1.5,1.75]",0
"5",1,2,"5","2016-05-10 14:04:58.900",14629142989,"state",8.69,"1",1,8.69,1,579.333333333333,"[[1,2,3,4],[5,6,7,8]]",1000,0,60,10,0,0,"stable",TRUE,TRUE,"2/3","1/3",100,"A",0,10,0.01,TRUE,"[.25,.5,.75,1,1.25,1.5,1.75]",6.1
"6",1,2,"5","2016-05-10 14:04:58.900",14629142989,"state",4.19,"2",2,4.19,1,745.777777777778,"[[1,2,3,4],[5,6,7,8]]",1000,0,60,10,0,0,"stable",TRUE,TRUE,"2/3","1/3",100,"A",0,10,0.01,TRUE,"[.25,.5,.75,1,1.25,1.5,1.75]",6.1
"7",1,2,"5","2016-05-10 14:04:58.900",14629142989,"state",6,"3",3,6,1,666.666666666667,"[[1,2,3,4],[5,6,7,8]]",1000,0,60,10,0,0,"stable",TRUE,TRUE,"2/3","1/3",100,"A",0,10,0.01,TRUE,"[.25,.5,.75,1,1.25,1.5,1.75]",6.1
"8",1,2,"5","2016-05-10 14:04:58.900",14629142989,"state",1.84,"4",4,1.84,1,245.333333333333,"[[1,2,3,4],[5,6,7,8]]",1000,0,60,10,0,0,"stable",TRUE,TRUE,"2/3","1/3",100,"A",0,10,0.01,TRUE,"[.25,.5,.75,1,1.25,1.5,1.75]",6.1
"9",1,2,"5","2016-05-10 14:05:05.100",14629143051,"state",6.15,"1",1,6.15,2,683.333333333333,"[[1,2,3,4],[5,6,7,8]]",1000,0,60,10,0,0,"stable",TRUE,TRUE,"2/3","1/3",100,"A",0,10,0.01,TRUE,"[.25,.5,.75,1,1.25,1.5,1.75]",12.3
"10",1,2,"5","2016-05-10 14:05:05.100",14629143051,"state",9.17,"2",2,9.17,2,611.333333333333,"[[1,2,3,4],[5,6,7,8]]",1000,0,60,10,0,0,"stable",TRUE,TRUE,"2/3","1/3",100,"A",0,10,0.01,TRUE,"[.25,.5,.75,1,1.25,1.5,1.75]",12.3
"11",1,2,"5","2016-05-10 14:05:05.100",14629143051,"state",8.6,"3",3,8.6,2,764.444444444444,"[[1,2,3,4],[5,6,7,8]]",1000,0,60,10,0,0,"stable",TRUE,TRUE,"2/3","1/3",100,"A",0,10,0.01,TRUE,"[.25,.5,.75,1,1.25,1.5,1.75]",12.3
"12",1,2,"5","2016-05-10 14:05:05.100",14629143051,"state",2.13,"4",4,2.13,2,284,"[[1,2,3,4],[5,6,7,8]]",1000,0,60,10,0,0,"stable",TRUE,TRUE,"2/3","1/3",100,"A",0,10,0.01,TRUE,"[.25,.5,.75,1,1.25,1.5,1.75]",12.3
"13",1,2,"5","2016-05-10 14:05:11.200",14629143112,"state",5.81,"1",1,5.81,3,516.444444444444,"[[1,2,3,4],[5,6,7,8]]",1000,0,60,10,0,0,"stable",TRUE,TRUE,"2/3","1/3",100,"A",0,10,0.01,TRUE,"[.25,.5,.75,1,1.25,1.5,1.75]",18.4
"14",1,2,"5","2016-05-10 14:05:11.200",14629143112,"state",0.83,"2",2,0.83,3,586.666666666667,"[[1,2,3,4],[5,6,7,8]]",1000,0,60,10,0,0,"stable",TRUE,TRUE,"2/3","1/3",100,"A",0,10,0.01,TRUE,"[.25,.5,.75,1,1.25,1.5,1.75]",18.4
"15",1,2,"5","2016-05-10 14:05:11.200",14629143112,"state",1.33,"3",3,1.33,3,177.333333333333,"[[1,2,3,4],[5,6,7,8]]",1000,0,60,10,0,0,"stable",TRUE,TRUE,"2/3","1/3",100,"A",0,10,0.01,TRUE,"[.25,.5,.75,1,1.25,1.5,1.75]",18.4
"16",1,2,"5","2016-05-10 14:05:11.200",14629143112,"state",4.76,"4",4,4.76,3,528.888888888889,"[[1,2,3,4],[5,6,7,8]]",1000,0,60,10,0,0,"stable",TRUE,TRUE,"2/3","1/3",100,"A",0,10,0.01,TRUE,"[.25,.5,.75,1,1.25,1.5,1.75]",18.4
"17",1,2,"5","2016-05-10 14:05:17.300",14629143173,"state",2.49,"1",1,2.49,4,221.333333333333,"[[1,2,3,4],[5,6,7,8]]",1000,0,60,10,0,0,"stable",TRUE,TRUE,"2/3","1/3",100,"A",0,10,0.01,TRUE,"[.25,.5,.75,1,1.25,1.5,1.75]",24.5
"18",1,2,"5","2016-05-10 14:05:17.300",14629143173,"state",1.42,"2",2,1.42,4,189.333333333333,"[[1,2,3,4],[5,6,7,8]]",1000,0,60,10,0,0,"stable",TRUE,TRUE,"2/3","1/3",100,"A",0,10,0.01,TRUE,"[.25,.5,.75,1,1.25,1.5,1.75]",24.5
"19",1,2,"5","2016-05-10 14:05:17.300",14629143173,"state",2.37,"3",3,2.37,4,263.333333333333,"[[1,2,3,4],[5,6,7,8]]",1000,0,60,10,0,0,"stable",TRUE,TRUE,"2/3","1/3",100,"A",0,10,0.01,TRUE,"[.25,.5,.75,1,1.25,1.5,1.75]",24.5
"20",1,2,"5","2016-05-10 14:05:17.300",14629143173,"state",4.06,"4",4,4.06,4,270.666666666667,"[[1,2,3,4],[5,6,7,8]]",1000,0,60,10,0,0,"stable",TRUE,TRUE,"2/3","1/3",100,"A",0,10,0.01,TRUE,"[.25,.5,.75,1,1.25,1.5,1.75]",24.5
"21",1,2,"5","2016-05-10 14:05:23.500",14629143235,"state",2.39,"1",1,2.39,5,265.555555555556,"[[1,2,3,4],[5,6,7,8]]",1000,0,60,10,0,0,"stable",TRUE,TRUE,"2/3","1/3",100,"A",0,10,0.01,TRUE,"[.25,.5,.75,1,1.25,1.5,1.75]",30.7
"22",1,2,"5","2016-05-10 14:05:23.500",14629143235,"state",7.93,"2",2,7.93,5,472,"[[1,2,3,4],[5,6,7,8]]",1000,0,60,10,0,0,"stable",TRUE,TRUE,"2/3","1/3",100,"A",0,10,0.01,TRUE,"[.25,.5,.75,1,1.25,1.5,1.75]",30.7
"23",1,2,"5","2016-05-10 14:05:23.500",14629143235,"state",0.53,"3",3,0.53,5,70.6666666666667,"[[1,2,3,4],[5,6,7,8]]",1000,0,60,10,0,0,"stable",TRUE,TRUE,"2/3","1/3",100,"A",0,10,0.01,TRUE,"[.25,.5,.75,1,1.25,1.5,1.75]",30.7
"24",1,2,"5","2016-05-10 14:05:23.500",14629143235,"state",4.12,"4",4,4.12,5,366.222222222222,"[[1,2,3,4],[5,6,7,8]]",1000,0,60,10,0,0,"stable",TRUE,TRUE,"2/3","1/3",100,"A",0,10,0.01,TRUE,"[.25,.5,.75,1,1.25,1.5,1.75]",30.7
"25",1,2,"5","2016-05-10 14:05:29.700",14629143297,"state",3.61,"1",1,3.61,6,320.888888888889,"[[1,2,3,4],[5,6,7,8]]",1000,0,60,10,0,0,"stable",TRUE,TRUE,"2/3","1/3",100,"A",0,10,0.01,TRUE,"[.25,.5,.75,1,1.25,1.5,1.75]",36.9
"26",1,2,"5","2016-05-10 14:05:29.700",14629143297,"state",2.68,"2",2,2.68,6,297.777777777778,"[[1,2,3,4],[5,6,7,8]]",1000,0,60,10,0,0,"stable",TRUE,TRUE,"2/3","1/3",100,"A",0,10,0.01,TRUE,"[.25,.5,.75,1,1.25,1.5,1.75]",36.9
"27",1,2,"5","2016-05-10 14:05:29.700",14629143297,"state",8.39,"3",3,8.39,6,559.333333333333,"[[1,2,3,4],[5,6,7,8]]",1000,0,60,10,0,0,"stable",TRUE,TRUE,"2/3","1/3",100,"A",0,10,0.01,TRUE,"[.25,.5,.75,1,1.25,1.5,1.75]",36.9
"28",1,2,"5","2016-05-10 14:05:29.700",14629143297,"state",2.5,"4",4,2.5,6,333.333333333333,"[[1,2,3,4],[5,6,7,8]]",1000,0,60,10,0,0,"stable",TRUE,TRUE,"2/3","1/3",100,"A",0,10,0.01,TRUE,"[.25,.5,.75,1,1.25,1.5,1.75]",36.9
"29",1,2,"5","2016-05-10 14:05:35.800",14629143358,"state",4.25,"1",1,4.25,7,377.777777777778,"[[1,2,3,4],[5,6,7,8]]",1000,0,60,10,0,0,"stable",TRUE,TRUE,"2/3","1/3",100,"A",0,10,0.01,TRUE,"[.25,.5,.75,1,1.25,1.5,1.75]",43
"30",1,2,"5","2016-05-10 14:05:35.800",14629143358,"state",7.61,"2",2,7.61,7,507.333333333333,"[[1,2,3,4],[5,6,7,8]]",1000,0,60,10,0,0,"stable",TRUE,TRUE,"2/3","1/3",100,"A",0,10,0.01,TRUE,"[.25,.5,.75,1,1.25,1.5,1.75]",43
"31",1,2,"5","2016-05-10 14:05:35.800",14629143358,"state",3.42,"3",3,3.42,7,380,"[[1,2,3,4],[5,6,7,8]]",1000,0,60,10,0,0,"stable",TRUE,TRUE,"2/3","1/3",100,"A",0,10,0.01,TRUE,"[.25,.5,.75,1,1.25,1.5,1.75]",43
"32",1,2,"5","2016-05-10 14:05:35.800",14629143358,"state",1.16,"4",4,1.16,7,154.666666666667,"[[1,2,3,4],[5,6,7,8]]",1000,0,60,10,0,0,"stable",TRUE,TRUE,"2/3","1/3",100,"A",0,10,0.01,TRUE,"[.25,.5,.75,1,1.25,1.5,1.75]",43
"33",1,2,"5","2016-05-10 14:05:41.900",14629143419,"state",2.87,"1",1,2.87,8,382.666666666667,"[[1,2,3,4],[5,6,7,8]]",1000,0,60,10,0,0,"stable",TRUE,TRUE,"2/3","1/3",100,"A",0,10,0.01,TRUE,"[.25,.5,.75,1,1.25,1.5,1.75]",49.1
"34",1,2,"5","2016-05-10 14:05:41.900",14629143419,"state",8.65,"2",2,8.65,8,576.666666666667,"[[1,2,3,4],[5,6,7,8]]",1000,0,60,10,0,0,"stable",TRUE,TRUE,"2/3","1/3",100,"A",0,10,0.01,TRUE,"[.25,.5,.75,1,1.25,1.5,1.75]",49.1
"35",1,2,"5","2016-05-10 14:05:41.900",14629143419,"state",4.95,"3",3,4.95,8,550,"[[1,2,3,4],[5,6,7,8]]",1000,0,60,10,0,0,"stable",TRUE,TRUE,"2/3","1/3",100,"A",0,10,0.01,TRUE,"[.25,.5,.75,1,1.25,1.5,1.75]",49.1
"36",1,2,"5","2016-05-10 14:05:41.900",14629143419,"state",7.65,"4",4,7.65,8,680,"[[1,2,3,4],[5,6,7,8]]",1000,0,60,10,0,0,"stable",TRUE,TRUE,"2/3","1/3",100,"A",0,10,0.01,TRUE,"[.25,.5,.75,1,1.25,1.5,1.75]",49.1
"37",1,2,"5","2016-05-10 14:05:48.100",14629143481,"state",2.03,"1",1,2.03,9,180.444444444444,"[[1,2,3,4],[5,6,7,8]]",1000,0,60,10,0,0,"stable",TRUE,TRUE,"2/3","1/3",100,"A",0,10,0.01,TRUE,"[.25,.5,.75,1,1.25,1.5,1.75]",55.3
"38",1,2,"5","2016-05-10 14:05:48.100",14629143481,"state",0.25,"2",2,0.25,9,33.3333333333333,"[[1,2,3,4],[5,6,7,8]]",1000,0,60,10,0,0,"stable",TRUE,TRUE,"2/3","1/3",100,"A",0,10,0.01,TRUE,"[.25,.5,.75,1,1.25,1.5,1.75]",55.3
"39",1,2,"5","2016-05-10 14:05:48.100",14629143481,"state",1.67,"3",3,1.67,9,185.555555555556,"[[1,2,3,4],[5,6,7,8]]",1000,0,60,10,0,0,"stable",TRUE,TRUE,"2/3","1/3",100,"A",0,10,0.01,TRUE,"[.25,.5,.75,1,1.25,1.5,1.75]",55.3
"40",1,2,"5","2016-05-10 14:05:48.100",14629143481,"state",9.07,"4",4,9.07,9,604.666666666667,"[[1,2,3,4],[5,6,7,8]]",1000,0,60,10,0,0,"stable",TRUE,TRUE,"2/3","1/3",100,"A",0,10,0.01,TRUE,"[.25,.5,.75,1,1.25,1.5,1.75]",55.3
"41",1,2,"5","2016-05-10 14:05:54.200",14629143542,"state",2.62,"1",1,2.62,10,291.111111111111,"[[1,2,3,4],[5,6,7,8]]",1000,0,60,10,0,0,"stable",TRUE,TRUE,"2/3","1/3",100,"A",0,10,0.01,TRUE,"[.25,.5,.75,1,1.25,1.5,1.75]",61.4
"42",1,2,"5","2016-05-10 14:05:54.200",14629143542,"state",7.74,"2",2,7.74,10,516,"[[1,2,3,4],[5,6,7,8]]",1000,0,60,10,0,0,"stable",TRUE,TRUE,"2/3","1/3",100,"A",0,10,0.01,TRUE,"[.25,.5,.75,1,1.25,1.5,1.75]",61.4
"43",1,2,"5","2016-05-10 14:05:54.200",14629143542,"state",7.06,"3",3,7.06,10,84,"[[1,2,3,4],[5,6,7,8]]",1000,0,60,10,0,0,"stable",TRUE,TRUE,"2/3","1/3",100,"A",0,10,0.01,TRUE,"[.25,.5,.75,1,1.25,1.5,1.75]",61.4
"44",1,2,"5","2016-05-10 14:05:54.200",14629143542,"state",5.6,"4",4,5.6,10,497.777777777778,"[[1,2,3,4],[5,6,7,8]]",1000,0,60,10,0,0,"stable",TRUE,TRUE,"2/3","1/3",100,"A",0,10,0.01,TRUE,"[.25,.5,.75,1,1.25,1.5,1.75]",61.4
"45",2,2,"5","2016-05-10 14:06:04.900",14629143649,"state",0.25,"1",1,0.25,0,33.3333333333333,"[[1,2,3,4],[5,6,7,8]]",1000,0,60,10,0.1,0,"stable",TRUE,TRUE,"2/3","1/3",100,"A",0,10,0.01,TRUE,"[.25,.5,.75,1,1.25,1.5,1.75]",0
"46",2,2,"5","2016-05-10 14:06:04.900",14629143649,"state",0.5,"2",2,0.5,0,55.5555555555556,"[[1,2,3,4],[5,6,7,8]]",1000,0,60,10,0.1,0,"stable",TRUE,TRUE,"2/3","1/3",100,"A",0,10,0.01,TRUE,"[.25,.5,.75,1,1.25,1.5,1.75]",0
"47",2,2,"5","2016-05-10 14:06:04.900",14629143649,"state",0.75,"3",3,0.75,0,66.6666666666667,"[[1,2,3,4],[5,6,7,8]]",1000,0,60,10,0.1,0,"stable",TRUE,TRUE,"2/3","1/3",100,"A",0,10,0.01,TRUE,"[.25,.5,.75,1,1.25,1.5,1.75]",0
"48",2,2,"5","2016-05-10 14:06:04.900",14629143649,"state",1,"4",4,1,0,66.6666666666667,"[[1,2,3,4],[5,6,7,8]]",1000,0,60,10,0.1,0,"stable",TRUE,TRUE,"2/3","1/3",100,"A",0,10,0.01,TRUE,"[.25,.5,.75,1,1.25,1.5,1.75]",0
"49",2,2,"5","2016-05-10 14:06:11.100",14629143711,"state",3.13,"1",1,2.15,1,191.111111111111,"[[1,2,3,4],[5,6,7,8]]",1000,0,60,10,0.1,0,"stable",TRUE,TRUE,"2/3","1/3",100,"A",0,10,0.01,TRUE,"[.25,.5,.75,1,1.25,1.5,1.75]",6.2
"50",2,2,"5","2016-05-10 14:06:11.100",14629143711,"state",2.69,"2",2,1.93,1,203.333333333333,"[[1,2,3,4],[5,6,7,8]]",1000,0,60,10,0.1,0,"stable",TRUE,TRUE,"2/3","1/3",100,"A",0,10,0.01,TRUE,"[.25,.5,.75,1,1.25,1.5,1.75]",6.2
"51",2,2,"5","2016-05-10 14:06:11.100",14629143711,"state",0.61,"3",3,0.61,1,81.3333333333333,"[[1,2,3,4],[5,6,7,8]]",1000,0,60,10,0.1,0,"stable",TRUE,TRUE,"2/3","1/3",100,"A",0,10,0.01,TRUE,"[.25,.5,.75,1,1.25,1.5,1.75]",6.2
"52",2,2,"5","2016-05-10 14:06:11.100",14629143711,"state",7.86,"4",4,2.9,1,186.666666666667,"[[1,2,3,4],[5,6,7,8]]",1000,0,60,10,0.1,0,"stable",TRUE,TRUE,"2/3","1/3",100,"A",0,10,0.01,TRUE,"[.25,.5,.75,1,1.25,1.5,1.75]",6.2
"53",2,2,"5","2016-05-10 14:06:17.300",14629143773,"state",5.67,"1",1,4.35,2,483.333333333333,"[[1,2,3,4],[5,6,7,8]]",1000,0,60,10,0.1,0,"stable",TRUE,TRUE,"2/3","1/3",100,"A",0,10,0.01,TRUE,"[.25,.5,.75,1,1.25,1.5,1.75]",12.4
"54",2,2,"5","2016-05-10 14:06:17.300",14629143773,"state",8.12,"2",2,4.93,2,429.333333333333,"[[1,2,3,4],[5,6,7,8]]",1000,0,60,10,0.1,0,"stable",TRUE,TRUE,"2/3","1/3",100,"A",0,10,0.01,TRUE,"[.25,.5,.75,1,1.25,1.5,1.75]",12.4
"55",2,2,"5","2016-05-10 14:06:17.300",14629143773,"state",0.61,"3",3,0.61,2,81.3333333333333,"[[1,2,3,4],[5,6,7,8]]",1000,0,60,10,0.1,0,"stable",TRUE,TRUE,"2/3","1/3",100,"A",0,10,0.01,TRUE,"[.25,.5,.75,1,1.25,1.5,1.75]",12.4
"56",2,2,"5","2016-05-10 14:06:17.300",14629143773,"state",8.63,"4",4,5.1,2,333.333333333333,"[[1,2,3,4],[5,6,7,8]]",1000,0,60,10,0.1,0,"stable",TRUE,TRUE,"2/3","1/3",100,"A",0,10,0.01,TRUE,"[.25,.5,.75,1,1.25,1.5,1.75]",12.4
"57",2,2,"5","2016-05-10 14:06:23.400",14629143834,"state",7.63,"1",1,5.55,3,493.333333333333,"[[1,2,3,4],[5,6,7,8]]",1000,0,60,10,0.1,0,"stable",TRUE,TRUE,"2/3","1/3",100,"A",0,10,0.01,TRUE,"[.25,.5,.75,1,1.25,1.5,1.75]",18.5
"58",2,2,"5","2016-05-10 14:06:23.400",14629143834,"state",9.89,"2",2,5.53,3,603.333333333333,"[[1,2,3,4],[5,6,7,8]]",1000,0,60,10,0.1,0,"stable",TRUE,TRUE,"2/3","1/3",100,"A",0,10,0.01,TRUE,"[.25,.5,.75,1,1.25,1.5,1.75]",18.5
"59",2,2,"5","2016-05-10 14:06:23.400",14629143834,"state",4.08,"3",3,2.01,3,254.666666666667,"[[1,2,3,4],[5,6,7,8]]",1000,0,60,10,0.1,0,"stable",TRUE,TRUE,"2/3","1/3",100,"A",0,10,0.01,TRUE,"[.25,.5,.75,1,1.25,1.5,1.75]",18.5
"60",2,2,"5","2016-05-10 14:06:23.400",14629143834,"state",4.88,"4",4,7.49999999999999,3,506.666666666666,"[[1,2,3,4],[5,6,7,8]]",1000,0,60,10,0.1,0,"stable",TRUE,TRUE,"2/3","1/3",100,"A",0,10,0.01,TRUE,"[.25,.5,.75,1,1.25,1.5,1.75]",18.5
"61",2,2,"5","2016-05-10 14:06:29.600",14629143896,"state",8.79,"1",1,5.41,4,480.888888888889,"[[1,2,3,4],[5,6,7,8]]",1000,0,60,10,0.1,0,"stable",TRUE,TRUE,"2/3","1/3",100,"A",0,10,0.01,TRUE,"[.25,.5,.75,1,1.25,1.5,1.75]",24.7
"62",2,2,"5","2016-05-10 14:06:29.600",14629143896,"state",5.84,"2",2,5.84,4,389.333333333333,"[[1,2,3,4],[5,6,7,8]]",1000,0,60,10,0.1,0,"stable",TRUE,TRUE,"2/3","1/3",100,"A",0,10,0.01,TRUE,"[.25,.5,.75,1,1.25,1.5,1.75]",24.7
"63",2,2,"5","2016-05-10 14:06:29.600",14629143896,"state",7.72,"3",3,2.86,4,368,"[[1,2,3,4],[5,6,7,8]]",1000,0,60,10,0.1,0,"stable",TRUE,TRUE,"2/3","1/3",100,"A",0,10,0.01,TRUE,"[.25,.5,.75,1,1.25,1.5,1.75]",24.7
"64",2,2,"5","2016-05-10 14:06:29.600",14629143896,"state",5.16,"4",4,5.16,4,573.333333333333,"[[1,2,3,4],[5,6,7,8]]",1000,0,60,10,0.1,0,"stable",TRUE,TRUE,"2/3","1/3",100,"A",0,10,0.01,TRUE,"[.25,.5,.75,1,1.25,1.5,1.75]",24.7
"65",2,2,"5","2016-05-10 14:06:35.800",14629143958,"state",2.35,"1",1,6.11,5,543.111111111111,"[[1,2,3,4],[5,6,7,8]]",1000,0,60,10,0.1,0,"stable",TRUE,TRUE,"2/3","1/3",100,"A",0,10,0.01,TRUE,"[.25,.5,.75,1,1.25,1.5,1.75]",30.9
"66",2,2,"5","2016-05-10 14:06:35.800",14629143958,"state",5.07,"2",2,5.07,5,563.333333333333,"[[1,2,3,4],[5,6,7,8]]",1000,0,60,10,0.1,0,"stable",TRUE,TRUE,"2/3","1/3",100,"A",0,10,0.01,TRUE,"[.25,.5,.75,1,1.25,1.5,1.75]",30.9
"67",2,2,"5","2016-05-10 14:06:35.800",14629143958,"state",6.58,"3",3,3.07,5,396,"[[1,2,3,4],[5,6,7,8]]",1000,0,60,10,0.1,0,"stable",TRUE,TRUE,"2/3","1/3",100,"A",0,10,0.01,TRUE,"[.25,.5,.75,1,1.25,1.5,1.75]",30.9
"68",2,2,"5","2016-05-10 14:06:35.800",14629143958,"state",4.93,"4",4,6.6,5,446.666666666667,"[[1,2,3,4],[5,6,7,8]]",1000,0,60,10,0.1,0,"stable",TRUE,TRUE,"2/3","1/3",100,"A",0,10,0.01,TRUE,"[.25,.5,.75,1,1.25,1.5,1.75]",30.9
"69",2,2,"5","2016-05-10 14:06:41.900",14629144019,"state",6.58,"1",1,4.71,6,523.333333333333,"[[1,2,3,4],[5,6,7,8]]",1000,0,60,10,0.1,0,"stable",TRUE,TRUE,"2/3","1/3",100,"A",0,10,0.01,TRUE,"[.25,.5,.75,1,1.25,1.5,1.75]",37
"70",2,2,"5","2016-05-10 14:06:41.900",14629144019,"state",2.87,"2",2,6.07,6,411.333333333333,"[[1,2,3,4],[5,6,7,8]]",1000,0,60,10,0.1,0,"stable",TRUE,TRUE,"2/3","1/3",100,"A",0,10,0.01,TRUE,"[.25,.5,.75,1,1.25,1.5,1.75]",37
"71",2,2,"5","2016-05-10 14:06:41.900",14629144019,"state",2.49,"3",3,2.49,6,332,"[[1,2,3,4],[5,6,7,8]]",1000,0,60,10,0.1,0,"stable",TRUE,TRUE,"2/3","1/3",100,"A",0,10,0.01,TRUE,"[.25,.5,.75,1,1.25,1.5,1.75]",37
"72",2,2,"5","2016-05-10 14:06:41.900",14629144019,"state",5.58,"4",4,5.39,6,470.222222222222,"[[1,2,3,4],[5,6,7,8]]",1000,0,60,10,0.1,0,"stable",TRUE,TRUE,"2/3","1/3",100,"A",0,10,0.01,TRUE,"[.25,.5,.75,1,1.25,1.5,1.75]",37
"73",2,2,"5","2016-05-10 14:06:48.100",14629144081,"state",3.55,"1",1,5.51,7,612.222222222222,"[[1,2,3,4],[5,6,7,8]]",1000,0,60,10,0.1,0,"stable",TRUE,TRUE,"2/3","1/3",100,"A",0,10,0.01,TRUE,"[.25,.5,.75,1,1.25,1.5,1.75]",43.2
"74",2,2,"5","2016-05-10 14:06:48.100",14629144081,"state",9.91,"2",2,6.42,7,421.333333333333,"[[1,2,3,4],[5,6,7,8]]",1000,0,60,10,0.1,0,"stable",TRUE,TRUE,"2/3","1/3",100,"A",0,10,0.01,TRUE,"[.25,.5,.75,1,1.25,1.5,1.75]",43.2
"75",2,2,"5","2016-05-10 14:06:48.100",14629144081,"state",9.13,"3",3,4.23,7,550.666666666667,"[[1,2,3,4],[5,6,7,8]]",1000,0,60,10,0.1,0,"stable",TRUE,TRUE,"2/3","1/3",100,"A",0,10,0.01,TRUE,"[.25,.5,.75,1,1.25,1.5,1.75]",43.2
"76",2,2,"5","2016-05-10 14:06:48.100",14629144081,"state",9.98,"4",4,6.06,7,529.777777777778,"[[1,2,3,4],[5,6,7,8]]",1000,0,60,10,0.1,0,"stable",TRUE,TRUE,"2/3","1/3",100,"A",0,10,0.01,TRUE,"[.25,.5,.75,1,1.25,1.5,1.75]",43.2
"77",2,2,"5","2016-05-10 14:06:54.200",14629144142,"state",8.03,"1",1,5.71,8,380.666666666667,"[[1,2,3,4],[5,6,7,8]]",1000,0,60,10,0.1,0,"stable",TRUE,TRUE,"2/3","1/3",100,"A",0,10,0.01,TRUE,"[.25,.5,.75,1,1.25,1.5,1.75]",49.3
"78",2,2,"5","2016-05-10 14:06:54.200",14629144142,"state",3.21,"2",2,4.89000000000001,8,443.555555555556,"[[1,2,3,4],[5,6,7,8]]",1000,0,60,10,0.1,0,"stable",TRUE,TRUE,"2/3","1/3",100,"A",0,10,0.01,TRUE,"[.25,.5,.75,1,1.25,1.5,1.75]",49.3
"79",2,2,"5","2016-05-10 14:06:54.200",14629144142,"state",1.52,"3",3,4.63,8,525.555555555555,"[[1,2,3,4],[5,6,7,8]]",1000,0,60,10,0.1,0,"stable",TRUE,TRUE,"2/3","1/3",100,"A",0,10,0.01,TRUE,"[.25,.5,.75,1,1.25,1.5,1.75]",49.3
"80",2,2,"5","2016-05-10 14:06:54.200",14629144142,"state",9.6,"4",4,4.46,8,581.333333333334,"[[1,2,3,4],[5,6,7,8]]",1000,0,60,10,0.1,0,"stable",TRUE,TRUE,"2/3","1/3",100,"A",0,10,0.01,TRUE,"[.25,.5,.75,1,1.25,1.5,1.75]",49.3
"81",2,2,"5","2016-05-10 14:07:00.400",14629144204,"state",9.94,"1",1,6.07,9,404.666666666667,"[[1,2,3,4],[5,6,7,8]]",1000,0,60,10,0.1,0,"stable",TRUE,TRUE,"2/3","1/3",100,"A",0,10,0.01,TRUE,"[.25,.5,.75,1,1.25,1.5,1.75]",55.5
"82",2,2,"5","2016-05-10 14:07:00.400",14629144204,"state",8.96,"2",2,4.89000000000001,9,425.777777777778,"[[1,2,3,4],[5,6,7,8]]",1000,0,60,10,0.1,0,"stable",TRUE,TRUE,"2/3","1/3",100,"A",0,10,0.01,TRUE,"[.25,.5,.75,1,1.25,1.5,1.75]",55.5
"83",2,2,"5","2016-05-10 14:07:00.400",14629144204,"state",5.24,"3",3,4.83,9,630.666666666666,"[[1,2,3,4],[5,6,7,8]]",1000,0,60,10,0.1,0,"stable",TRUE,TRUE,"2/3","1/3",100,"A",0,10,0.01,TRUE,"[.25,.5,.75,1,1.25,1.5,1.75]",55.5
"84",2,2,"5","2016-05-10 14:07:00.400",14629144204,"state",5.96,"4",4,4.86,9,528.888888888889,"[[1,2,3,4],[5,6,7,8]]",1000,0,60,10,0.1,0,"stable",TRUE,TRUE,"2/3","1/3",100,"A",0,10,0.01,TRUE,"[.25,.5,.75,1,1.25,1.5,1.75]",55.5
"85",2,2,"5","2016-05-10 14:07:06.600",14629144266,"state",4.88,"1",1,4.95,10,550,"[[1,2,3,4],[5,6,7,8]]",1000,0,60,10,0.1,0,"stable",TRUE,TRUE,"2/3","1/3",100,"A",0,10,0.01,TRUE,"[.25,.5,.75,1,1.25,1.5,1.75]",61.7
"86",2,2,"5","2016-05-10 14:07:06.600",14629144266,"state",6.91,"2",2,5.49,10,479.111111111111,"[[1,2,3,4],[5,6,7,8]]",1000,0,60,10,0.1,0,"stable",TRUE,TRUE,"2/3","1/3",100,"A",0,10,0.01,TRUE,"[.25,.5,.75,1,1.25,1.5,1.75]",61.7
"87",2,2,"5","2016-05-10 14:07:06.600",14629144266,"state",9.64,"3",3,6.42999999999999,10,421.999999999999,"[[1,2,3,4],[5,6,7,8]]",1000,0,60,10,0.1,0,"stable",TRUE,TRUE,"2/3","1/3",100,"A",0,10,0.01,TRUE,"[.25,.5,.75,1,1.25,1.5,1.75]",61.7
"88",2,2,"5","2016-05-10 14:07:06.600",14629144266,"state",3.43,"4",4,3.66,10,501.333333333334,"[[1,2,3,4],[5,6,7,8]]",1000,0,60,10,0.1,0,"stable",TRUE,TRUE,"2/3","1/3",100,"A",0,10,0.01,TRUE,"[.25,.5,.75,1,1.25,1.5,1.75]",61.7
"89",3,2,"5","2016-05-10 14:07:17.300",14629144373,"state",0.25,"1",1,0.25,0,33.3333333333333,"[[1,2,3,4],[5,6,7,8]]",1000,0,60,10,0.3,0,"stable",FALSE,TRUE,"2/3","1/3",100,"A",0,10,0.01,TRUE,"[.25,.5,.75,1,1.25,1.5,1.75]",0
"90",3,2,"5","2016-05-10 14:07:17.300",14629144373,"state",0.5,"2",2,0.5,0,55.5555555555556,"[[1,2,3,4],[5,6,7,8]]",1000,0,60,10,0.3,0,"stable",FALSE,TRUE,"2/3","1/3",100,"A",0,10,0.01,TRUE,"[.25,.5,.75,1,1.25,1.5,1.75]",0
"91",3,2,"5","2016-05-10 14:07:17.300",14629144373,"state",0.75,"3",3,0.75,0,66.6666666666667,"[[1,2,3,4],[5,6,7,8]]",1000,0,60,10,0.3,0,"stable",FALSE,TRUE,"2/3","1/3",100,"A",0,10,0.01,TRUE,"[.25,.5,.75,1,1.25,1.5,1.75]",0
"92",3,2,"5","2016-05-10 14:07:17.300",14629144373,"state",1,"4",4,1,0,66.6666666666667,"[[1,2,3,4],[5,6,7,8]]",1000,0,60,10,0.3,0,"stable",FALSE,TRUE,"2/3","1/3",100,"A",0,10,0.01,TRUE,"[.25,.5,.75,1,1.25,1.5,1.75]",0
"93",3,2,"5","2016-05-10 14:07:23.400",14629144434,"state",3.43,"1",1,3.43,1,381.111111111111,"[[1,2,3,4],[5,6,7,8]]",1000,0,60,10,0.3,0,"stable",FALSE,TRUE,"2/3","1/3",100,"A",0,10,0.01,TRUE,"[.25,.5,.75,1,1.25,1.5,1.75]",6.1
"94",3,2,"5","2016-05-10 14:07:23.400",14629144434,"state",5.28,"2",2,4.86,1,405.333333333333,"[[1,2,3,4],[5,6,7,8]]",1000,0,60,10,0.3,0,"stable",FALSE,TRUE,"2/3","1/3",100,"A",0,10,0.01,TRUE,"[.25,.5,.75,1,1.25,1.5,1.75]",6.1
"95",3,2,"5","2016-05-10 14:07:23.400",14629144434,"state",0.75,"3",3,0.75,1,100,"[[1,2,3,4],[5,6,7,8]]",1000,0,60,10,0.3,0,"stable",FALSE,TRUE,"2/3","1/3",100,"A",0,10,0.01,TRUE,"[.25,.5,.75,1,1.25,1.5,1.75]",6.1
"96",3,2,"5","2016-05-10 14:07:23.400",14629144434,"state",8.6,"4",4,8.5,1,546.666666666667,"[[1,2,3,4],[5,6,7,8]]",1000,0,60,10,0.3,0,"stable",FALSE,TRUE,"2/3","1/3",100,"A",0,10,0.01,TRUE,"[.25,.5,.75,1,1.25,1.5,1.75]",6.1
"97",3,2,"5","2016-05-10 14:07:29.500",14629144495,"state",8.29,"1",1,5.83,2,647.777777777778,"[[1,2,3,4],[5,6,7,8]]",1000,0,60,10,0.3,0,"stable",FALSE,TRUE,"2/3","1/3",100,"A",0,10,0.01,TRUE,"[.25,.5,.75,1,1.25,1.5,1.75]",12.2
"98",3,2,"5","2016-05-10 14:07:29.500",14629144495,"state",8.52,"2",2,6.18,2,522.666666666667,"[[1,2,3,4],[5,6,7,8]]",1000,0,60,10,0.3,0,"stable",FALSE,TRUE,"2/3","1/3",100,"A",0,10,0.01,TRUE,"[.25,.5,.75,1,1.25,1.5,1.75]",12.2
"99",3,2,"5","2016-05-10 14:07:29.500",14629144495,"state",1.18,"3",3,2.09,2,318.666666666667,"[[1,2,3,4],[5,6,7,8]]",1000,0,60,10,0.3,0,"stable",FALSE,TRUE,"2/3","1/3",100,"A",0,10,0.01,TRUE,"[.25,.5,.75,1,1.25,1.5,1.75]",12.2
"100",3,2,"5","2016-05-10 14:07:29.500",14629144495,"state",4.57,"4",4,6.3,2,440,"[[1,2,3,4],[5,6,7,8]]",1000,0,60,10,0.3,0,"stable",FALSE,TRUE,"2/3","1/3",100,"A",0,10,0.01,TRUE,"[.25,.5,.75,1,1.25,1.5,1.75]",12.2
"101",3,2,"5","2016-05-10 14:07:35.700",14629144557,"state",9.62,"1",1,4.76,3,528.888888888889,"[[1,2,3,4],[5,6,7,8]]",1000,0,60,10,0.3,0,"stable",FALSE,TRUE,"2/3","1/3",100,"A",0,10,0.01,TRUE,"[.25,.5,.75,1,1.25,1.5,1.75]",18.4
"102",3,2,"5","2016-05-10 14:07:35.700",14629144557,"state",5.2,"2",2,5.59,3,523.555555555555,"[[1,2,3,4],[5,6,7,8]]",1000,0,60,10,0.3,0,"stable",FALSE,TRUE,"2/3","1/3",100,"A",0,10,0.01,TRUE,"[.25,.5,.75,1,1.25,1.5,1.75]",18.4
"103",3,2,"5","2016-05-10 14:07:35.700",14629144557,"state",7.08,"3",3,6.3,3,400,"[[1,2,3,4],[5,6,7,8]]",1000,0,60,10,0.3,0,"stable",FALSE,TRUE,"2/3","1/3",100,"A",0,10,0.01,TRUE,"[.25,.5,.75,1,1.25,1.5,1.75]",18.4
"104",3,2,"5","2016-05-10 14:07:35.700",14629144557,"state",7.5,"4",4,1.78,3,197.333333333333,"[[1,2,3,4],[5,6,7,8]]",1000,0,60,10,0.3,0,"stable",FALSE,TRUE,"2/3","1/3",100,"A",0,10,0.01,TRUE,"[.25,.5,.75,1,1.25,1.5,1.75]",18.4
"105",3,2,"5","2016-05-10 14:07:41.900",14629144619,"state",1.71,"1",1,5.36,4,476.444444444444,"[[1,2,3,4],[5,6,7,8]]",1000,0,60,10,0.3,0,"stable",FALSE,TRUE,"2/3","1/3",100,"A",0,10,0.01,TRUE,"[.25,.5,.75,1,1.25,1.5,1.75]",24.6
"106",3,2,"5","2016-05-10 14:07:41.900",14629144619,"state",7.76,"2",2,7.52,4,481.333333333333,"[[1,2,3,4],[5,6,7,8]]",1000,0,60,10,0.3,0,"stable",FALSE,TRUE,"2/3","1/3",100,"A",0,10,0.01,TRUE,"[.25,.5,.75,1,1.25,1.5,1.75]",24.6
"107",3,2,"5","2016-05-10 14:07:41.900",14629144619,"state",2.9,"3",3,2.9,4,322.222222222222,"[[1,2,3,4],[5,6,7,8]]",1000,0,60,10,0.3,0,"stable",FALSE,TRUE,"2/3","1/3",100,"A",0,10,0.01,TRUE,"[.25,.5,.75,1,1.25,1.5,1.75]",24.6
"108",3,2,"5","2016-05-10 14:07:41.900",14629144619,"state",2.41,"4",4,2.41,4,308,"[[1,2,3,4],[5,6,7,8]]",1000,0,60,10,0.3,0,"stable",FALSE,TRUE,"2/3","1/3",100,"A",0,10,0.01,TRUE,"[.25,.5,.75,1,1.25,1.5,1.75]",24.6
"109",3,2,"5","2016-05-10 14:07:48.000",14629144680,"state",4.31,"1",1,1.15,5,153.333333333333,"[[1,2,3,4],[5,6,7,8]]",1000,0,60,10,0.3,0,"stable",FALSE,TRUE,"2/3","1/3",100,"A",0,10,0.01,TRUE,"[.25,.5,.75,1,1.25,1.5,1.75]",30.7
"110",3,2,"5","2016-05-10 14:07:48.000",14629144680,"state",8.1,"2",2,6.53,5,415.333333333333,"[[1,2,3,4],[5,6,7,8]]",1000,0,60,10,0.3,0,"stable",FALSE,TRUE,"2/3","1/3",100,"A",0,10,0.01,TRUE,"[.25,.5,.75,1,1.25,1.5,1.75]",30.7
"111",3,2,"5","2016-05-10 14:07:48.000",14629144680,"state",0.44,"3",3,1.41,5,190,"[[1,2,3,4],[5,6,7,8]]",1000,0,60,10,0.3,0,"stable",FALSE,TRUE,"2/3","1/3",100,"A",0,10,0.01,TRUE,"[.25,.5,.75,1,1.25,1.5,1.75]",30.7
"112",3,2,"5","2016-05-10 14:07:48.000",14629144680,"state",3.61,"4",4,4.88,5,460.444444444444,"[[1,2,3,4],[5,6,7,8]]",1000,0,60,10,0.3,0,"stable",FALSE,TRUE,"2/3","1/3",100,"A",0,10,0.01,TRUE,"[.25,.5,.75,1,1.25,1.5,1.75]",30.7
"113",3,2,"5","2016-05-10 14:07:54.200",14629144742,"state",5.18,"1",1,5.18,6,460.444444444444,"[[1,2,3,4],[5,6,7,8]]",1000,0,60,10,0.3,0,"stable",FALSE,TRUE,"2/3","1/3",100,"A",0,10,0.01,TRUE,"[.25,.5,.75,1,1.25,1.5,1.75]",36.9
"114",3,2,"5","2016-05-10 14:07:54.200",14629144742,"state",5.37,"2",2,5.4,6,380,"[[1,2,3,4],[5,6,7,8]]",1000,0,60,10,0.3,0,"stable",FALSE,TRUE,"2/3","1/3",100,"A",0,10,0.01,TRUE,"[.25,.5,.75,1,1.25,1.5,1.75]",36.9
"115",3,2,"5","2016-05-10 14:07:54.200",14629144742,"state",3.66,"3",3,3.74,6,448.888888888889,"[[1,2,3,4],[5,6,7,8]]",1000,0,60,10,0.3,0,"stable",FALSE,TRUE,"2/3","1/3",100,"A",0,10,0.01,TRUE,"[.25,.5,.75,1,1.25,1.5,1.75]",36.9
"116",3,2,"5","2016-05-10 14:07:54.200",14629144742,"state",9.51,"4",4,2.4,6,280,"[[1,2,3,4],[5,6,7,8]]",1000,0,60,10,0.3,0,"stable",FALSE,TRUE,"2/3","1/3",100,"A",0,10,0.01,TRUE,"[.25,.5,.75,1,1.25,1.5,1.75]",36.9
"117",3,2,"5","2016-05-10 14:08:00.300",14629144803,"state",1.1,"1",1,1.1,7,146.666666666667,"[[1,2,3,4],[5,6,7,8]]",1000,0,60,10,0.3,0,"stable",FALSE,TRUE,"2/3","1/3",100,"A",0,10,0.01,TRUE,"[.25,.5,.75,1,1.25,1.5,1.75]",43
"118",3,2,"5","2016-05-10 14:08:00.300",14629144803,"state",8.54,"2",2,4.2,7,346.666666666667,"[[1,2,3,4],[5,6,7,8]]",1000,0,60,10,0.3,0,"stable",FALSE,TRUE,"2/3","1/3",100,"A",0,10,0.01,TRUE,"[.25,.5,.75,1,1.25,1.5,1.75]",43
"119",3,2,"5","2016-05-10 14:08:00.300",14629144803,"state",4,"3",3,4,7,266.666666666667,"[[1,2,3,4],[5,6,7,8]]",1000,0,60,10,0.3,0,"stable",FALSE,TRUE,"2/3","1/3",100,"A",0,10,0.01,TRUE,"[.25,.5,.75,1,1.25,1.5,1.75]",43
"120",3,2,"5","2016-05-10 14:08:00.300",14629144803,"state",2.47,"4",4,3.14,7,382.222222222222,"[[1,2,3,4],[5,6,7,8]]",1000,0,60,10,0.3,0,"stable",FALSE,TRUE,"2/3","1/3",100,"A",0,10,0.01,TRUE,"[.25,.5,.75,1,1.25,1.5,1.75]",43
"121",3,2,"5","2016-05-10 14:08:06.400",14629144864,"state",4.65,"1",1,4.22,8,468.888888888889,"[[1,2,3,4],[5,6,7,8]]",1000,0,60,10,0.3,0,"stable",FALSE,TRUE,"2/3","1/3",100,"A",0,10,0.01,TRUE,"[.25,.5,.75,1,1.25,1.5,1.75]",49.1
"122",3,2,"5","2016-05-10 14:08:06.400",14629144864,"state",4.65,"2",2,4.65,8,413.333333333333,"[[1,2,3,4],[5,6,7,8]]",1000,0,60,10,0.3,0,"stable",FALSE,TRUE,"2/3","1/3",100,"A",0,10,0.01,TRUE,"[.25,.5,.75,1,1.25,1.5,1.75]",49.1
"123",3,2,"5","2016-05-10 14:08:06.400",14629144864,"state",4.61,"3",3,4.43,8,550.666666666667,"[[1,2,3,4],[5,6,7,8]]",1000,0,60,10,0.3,0,"stable",FALSE,TRUE,"2/3","1/3",100,"A",0,10,0.01,TRUE,"[.25,.5,.75,1,1.25,1.5,1.75]",49.1
"124",3,2,"5","2016-05-10 14:08:06.400",14629144864,"state",6.47,"4",4,6.47,8,431.333333333333,"[[1,2,3,4],[5,6,7,8]]",1000,0,60,10,0.3,0,"stable",FALSE,TRUE,"2/3","1/3",100,"A",0,10,0.01,TRUE,"[.25,.5,.75,1,1.25,1.5,1.75]",49.1
"125",3,2,"5","2016-05-10 14:08:12.600",14629144926,"state",7.82,"1",1,6.27,9,418,"[[1,2,3,4],[5,6,7,8]]",1000,0,60,10,0.3,0,"stable",FALSE,TRUE,"2/3","1/3",100,"A",0,10,0.01,TRUE,"[.25,.5,.75,1,1.25,1.5,1.75]",55.3
"126",3,2,"5","2016-05-10 14:08:12.600",14629144926,"state",5.83,"2",2,5.83,9,524.444444444444,"[[1,2,3,4],[5,6,7,8]]",1000,0,60,10,0.3,0,"stable",FALSE,TRUE,"2/3","1/3",100,"A",0,10,0.01,TRUE,"[.25,.5,.75,1,1.25,1.5,1.75]",55.3
"127",3,2,"5","2016-05-10 14:08:12.600",14629144926,"state",7.23,"3",3,5.63,9,592.222222222222,"[[1,2,3,4],[5,6,7,8]]",1000,0,60,10,0.3,0,"stable",FALSE,TRUE,"2/3","1/3",100,"A",0,10,0.01,TRUE,"[.25,.5,.75,1,1.25,1.5,1.75]",55.3
"128",3,2,"5","2016-05-10 14:08:12.600",14629144926,"state",6.22,"4",4,2.96,9,354.666666666667,"[[1,2,3,4],[5,6,7,8]]",1000,0,60,10,0.3,0,"stable",FALSE,TRUE,"2/3","1/3",100,"A",0,10,0.01,TRUE,"[.25,.5,.75,1,1.25,1.5,1.75]",55.3
"129",3,2,"5","2016-05-10 14:08:18.700",14629144987,"state",4.02,"1",1,9.62,10,641.333333333333,"[[1,2,3,4],[5,6,7,8]]",1000,0,60,10,0.3,0,"stable",FALSE,TRUE,"2/3","1/3",100,"A",0,10,0.01,TRUE,"[.25,.5,.75,1,1.25,1.5,1.75]",61.4
"130",3,2,"5","2016-05-10 14:08:18.700",14629144987,"state",2.28,"2",2,1.93,10,217.333333333334,"[[1,2,3,4],[5,6,7,8]]",1000,0,60,10,0.3,0,"stable",FALSE,TRUE,"2/3","1/3",100,"A",0,10,0.01,TRUE,"[.25,.5,.75,1,1.25,1.5,1.75]",61.4
"131",3,2,"5","2016-05-10 14:08:18.700",14629144987,"state",9.7,"3",3,5.02,10,419.555555555556,"[[1,2,3,4],[5,6,7,8]]",1000,0,60,10,0.3,0,"stable",FALSE,TRUE,"2/3","1/3",100,"A",0,10,0.01,TRUE,"[.25,.5,.75,1,1.25,1.5,1.75]",61.4
"132",3,2,"5","2016-05-10 14:08:18.700",14629144987,"state",1.5,"4",4,2.3,10,288.888888888889,"[[1,2,3,4],[5,6,7,8]]",1000,0,60,10,0.3,0,"stable",FALSE,TRUE,"2/3","1/3",100,"A",0,10,0.01,TRUE,"[.25,.5,.75,1,1.25,1.5,1.75]",61.4
"133",4,2,"5","2016-05-10 14:08:29.500",14629145095,"state",0.25,"1",1,0.25,0,33.3333333333333,"[[1,2,3,4],[5,6,7,8]]",1000,0,60,10,0.5,0,"stable",FALSE,TRUE,"2/3","1/3",100,"A",0,10,0.01,TRUE,"[.25,.5,.75,1,1.25,1.5,1.75]",0
"134",4,2,"5","2016-05-10 14:08:29.500",14629145095,"state",0.5,"2",2,0.5,0,55.5555555555556,"[[1,2,3,4],[5,6,7,8]]",1000,0,60,10,0.5,0,"stable",FALSE,TRUE,"2/3","1/3",100,"A",0,10,0.01,TRUE,"[.25,.5,.75,1,1.25,1.5,1.75]",0
"135",4,2,"5","2016-05-10 14:08:29.500",14629145095,"state",0.75,"3",3,0.75,0,66.6666666666667,"[[1,2,3,4],[5,6,7,8]]",1000,0,60,10,0.5,0,"stable",FALSE,TRUE,"2/3","1/3",100,"A",0,10,0.01,TRUE,"[.25,.5,.75,1,1.25,1.5,1.75]",0
"136",4,2,"5","2016-05-10 14:08:29.500",14629145095,"state",1,"4",4,1,0,66.6666666666667,"[[1,2,3,4],[5,6,7,8]]",1000,0,60,10,0.5,0,"stable",FALSE,TRUE,"2/3","1/3",100,"A",0,10,0.01,TRUE,"[.25,.5,.75,1,1.25,1.5,1.75]",0
"137",4,2,"5","2016-05-10 14:08:35.500",14629145155,"state",2.54,"1",1,2.54,1,282.222222222222,"[[1,2,3,4],[5,6,7,8]]",1000,0,60,10,0.5,0,"stable",FALSE,TRUE,"2/3","1/3",100,"A",0,10,0.01,TRUE,"[.25,.5,.75,1,1.25,1.5,1.75]",6
"138",4,2,"5","2016-05-10 14:08:35.500",14629145155,"state",6.28,"2",2,7.28,1,518.666666666667,"[[1,2,3,4],[5,6,7,8]]",1000,0,60,10,0.5,0,"stable",FALSE,TRUE,"2/3","1/3",100,"A",0,10,0.01,TRUE,"[.25,.5,.75,1,1.25,1.5,1.75]",6
"139",4,2,"5","2016-05-10 14:08:35.500",14629145155,"state",3.07,"3",3,2.62,1,282.666666666667,"[[1,2,3,4],[5,6,7,8]]",1000,0,60,10,0.5,0,"stable",FALSE,TRUE,"2/3","1/3",100,"A",0,10,0.01,TRUE,"[.25,.5,.75,1,1.25,1.5,1.75]",6
"140",4,2,"5","2016-05-10 14:08:35.500",14629145155,"state",8.37,"4",4,6,1,488.888888888889,"[[1,2,3,4],[5,6,7,8]]",1000,0,60,10,0.5,0,"stable",FALSE,TRUE,"2/3","1/3",100,"A",0,10,0.01,TRUE,"[.25,.5,.75,1,1.25,1.5,1.75]",6
"141",4,2,"5","2016-05-10 14:08:41.700",14629145217,"state",8.84,"1",1,8.84,2,589.333333333333,"[[1,2,3,4],[5,6,7,8]]",1000,0,60,10,0.5,0,"stable",FALSE,TRUE,"2/3","1/3",100,"A",0,10,0.01,TRUE,"[.25,.5,.75,1,1.25,1.5,1.75]",12.2
"142",4,2,"5","2016-05-10 14:08:41.700",14629145217,"state",4.38,"2",2,4.38,2,486.666666666667,"[[1,2,3,4],[5,6,7,8]]",1000,0,60,10,0.5,0,"stable",FALSE,TRUE,"2/3","1/3",100,"A",0,10,0.01,TRUE,"[.25,.5,.75,1,1.25,1.5,1.75]",12.2
"143",4,2,"5","2016-05-10 14:08:41.700",14629145217,"state",3.09,"3",3,4.06,2,405.333333333333,"[[1,2,3,4],[5,6,7,8]]",1000,0,60,10,0.5,0,"stable",FALSE,TRUE,"2/3","1/3",100,"A",0,10,0.01,TRUE,"[.25,.5,.75,1,1.25,1.5,1.75]",12.2
"144",4,2,"5","2016-05-10 14:08:41.700",14629145217,"state",1.21,"4",4,3.4,2,520,"[[1,2,3,4],[5,6,7,8]]",1000,0,60,10,0.5,0,"stable",FALSE,TRUE,"2/3","1/3",100,"A",0,10,0.01,TRUE,"[.25,.5,.75,1,1.25,1.5,1.75]",12.2
"145",4,2,"5","2016-05-10 14:08:47.800",14629145278,"state",2.11,"1",1,2.68,3,297.777777777778,"[[1,2,3,4],[5,6,7,8]]",1000,0,60,10,0.5,0,"stable",FALSE,TRUE,"2/3","1/3",100,"A",0,10,0.01,TRUE,"[.25,.5,.75,1,1.25,1.5,1.75]",18.3
"146",4,2,"5","2016-05-10 14:08:47.800",14629145278,"state",8.43,"2",2,6.02,3,490.666666666667,"[[1,2,3,4],[5,6,7,8]]",1000,0,60,10,0.5,0,"stable",FALSE,TRUE,"2/3","1/3",100,"A",0,10,0.01,TRUE,"[.25,.5,.75,1,1.25,1.5,1.75]",18.3
"147",4,2,"5","2016-05-10 14:08:47.800",14629145278,"state",8.69,"3",3,2.89,3,318.666666666667,"[[1,2,3,4],[5,6,7,8]]",1000,0,60,10,0.5,0,"stable",FALSE,TRUE,"2/3","1/3",100,"A",0,10,0.01,TRUE,"[.25,.5,.75,1,1.25,1.5,1.75]",18.3
"148",4,2,"5","2016-05-10 14:08:47.800",14629145278,"state",7.32,"4",4,6.76,3,417.333333333333,"[[1,2,3,4],[5,6,7,8]]",1000,0,60,10,0.5,0,"stable",FALSE,TRUE,"2/3","1/3",100,"A",0,10,0.01,TRUE,"[.25,.5,.75,1,1.25,1.5,1.75]",18.3
"149",4,2,"5","2016-05-10 14:08:54.000",14629145340,"state",5.48,"1",1,5.48,4,487.111111111111,"[[1,2,3,4],[5,6,7,8]]",1000,0,60,10,0.5,0,"stable",FALSE,TRUE,"2/3","1/3",100,"A",0,10,0.01,TRUE,"[.25,.5,.75,1,1.25,1.5,1.75]",24.5
"150",4,2,"5","2016-05-10 14:08:54.000",14629145340,"state",5.07,"2",2,5.44,4,396,"[[1,2,3,4],[5,6,7,8]]",1000,0,60,10,0.5,0,"stable",FALSE,TRUE,"2/3","1/3",100,"A",0,10,0.01,TRUE,"[.25,.5,.75,1,1.25,1.5,1.75]",24.5
"151",4,2,"5","2016-05-10 14:08:54.000",14629145340,"state",5.18,"3",3,5.18,4,575.555555555556,"[[1,2,3,4],[5,6,7,8]]",1000,0,60,10,0.5,0,"stable",FALSE,TRUE,"2/3","1/3",100,"A",0,10,0.01,TRUE,"[.25,.5,.75,1,1.25,1.5,1.75]",24.5
"152",4,2,"5","2016-05-10 14:08:54.000",14629145340,"state",3.3,"4",4,3.3,4,376,"[[1,2,3,4],[5,6,7,8]]",1000,0,60,10,0.5,0,"stable",FALSE,TRUE,"2/3","1/3",100,"A",0,10,0.01,TRUE,"[.25,.5,.75,1,1.25,1.5,1.75]",24.5
"153",4,2,"5","2016-05-10 14:09:00.100",14629145401,"state",2.81,"1",1,3.59,5,239.333333333333,"[[1,2,3,4],[5,6,7,8]]",1000,0,60,10,0.5,0,"stable",FALSE,TRUE,"2/3","1/3",100,"A",0,10,0.01,TRUE,"[.25,.5,.75,1,1.25,1.5,1.75]",30.6
"154",4,2,"5","2016-05-10 14:09:00.100",14629145401,"state",7.36,"2",2,2.12,5,216,"[[1,2,3,4],[5,6,7,8]]",1000,0,60,10,0.5,0,"stable",FALSE,TRUE,"2/3","1/3",100,"A",0,10,0.01,TRUE,"[.25,.5,.75,1,1.25,1.5,1.75]",30.6
"155",4,2,"5","2016-05-10 14:09:00.100",14629145401,"state",1.92,"3",3,2.62,5,346.666666666667,"[[1,2,3,4],[5,6,7,8]]",1000,0,60,10,0.5,0,"stable",FALSE,TRUE,"2/3","1/3",100,"A",0,10,0.01,TRUE,"[.25,.5,.75,1,1.25,1.5,1.75]",30.6
"156",4,2,"5","2016-05-10 14:09:00.100",14629145401,"state",7.7,"4",4,3.78,5,291.555555555556,"[[1,2,3,4],[5,6,7,8]]",1000,0,60,10,0.5,0,"stable",FALSE,TRUE,"2/3","1/3",100,"A",0,10,0.01,TRUE,"[.25,.5,.75,1,1.25,1.5,1.75]",30.6
"157",4,2,"5","2016-05-10 14:09:06.300",14629145463,"state",6.19,"1",1,4.83,6,429.333333333333,"[[1,2,3,4],[5,6,7,8]]",1000,0,60,10,0.5,0,"stable",FALSE,TRUE,"2/3","1/3",100,"A",0,10,0.01,TRUE,"[.25,.5,.75,1,1.25,1.5,1.75]",36.8
"158",4,2,"5","2016-05-10 14:09:06.300",14629145463,"state",8.1,"2",2,4.14,6,485.333333333333,"[[1,2,3,4],[5,6,7,8]]",1000,0,60,10,0.5,0,"stable",FALSE,TRUE,"2/3","1/3",100,"A",0,10,0.01,TRUE,"[.25,.5,.75,1,1.25,1.5,1.75]",36.8
"159",4,2,"5","2016-05-10 14:09:06.300",14629145463,"state",2.79,"3",3,6.38,6,458.666666666667,"[[1,2,3,4],[5,6,7,8]]",1000,0,60,10,0.5,0,"stable",FALSE,TRUE,"2/3","1/3",100,"A",0,10,0.01,TRUE,"[.25,.5,.75,1,1.25,1.5,1.75]",36.8
"160",4,2,"5","2016-05-10 14:09:06.300",14629145463,"state",4.02,"4",4,4.02,6,446.666666666667,"[[1,2,3,4],[5,6,7,8]]",1000,0,60,10,0.5,0,"stable",FALSE,TRUE,"2/3","1/3",100,"A",0,10,0.01,TRUE,"[.25,.5,.75,1,1.25,1.5,1.75]",36.8
"161",4,2,"5","2016-05-10 14:09:12.400",14629145524,"state",2.37,"1",1,2.65,7,294.444444444444,"[[1,2,3,4],[5,6,7,8]]",1000,0,60,10,0.5,0,"stable",FALSE,TRUE,"2/3","1/3",100,"A",0,10,0.01,TRUE,"[.25,.5,.75,1,1.25,1.5,1.75]",42.9
"162",4,2,"5","2016-05-10 14:09:12.400",14629145524,"state",4.04,"2",2,4.04,7,269.333333333333,"[[1,2,3,4],[5,6,7,8]]",1000,0,60,10,0.5,0,"stable",FALSE,TRUE,"2/3","1/3",100,"A",0,10,0.01,TRUE,"[.25,.5,.75,1,1.25,1.5,1.75]",42.9
"163",4,2,"5","2016-05-10 14:09:12.400",14629145524,"state",4.65,"3",3,3.85,7,297.777777777778,"[[1,2,3,4],[5,6,7,8]]",1000,0,60,10,0.5,0,"stable",FALSE,TRUE,"2/3","1/3",100,"A",0,10,0.01,TRUE,"[.25,.5,.75,1,1.25,1.5,1.75]",42.9
"164",4,2,"5","2016-05-10 14:09:12.400",14629145524,"state",2.6,"4",4,2.6,7,346.666666666667,"[[1,2,3,4],[5,6,7,8]]",1000,0,60,10,0.5,0,"stable",FALSE,TRUE,"2/3","1/3",100,"A",0,10,0.01,TRUE,"[.25,.5,.75,1,1.25,1.5,1.75]",42.9
"165",4,2,"5","2016-05-10 14:09:18.600",14629145586,"state",9.37,"1",1,9.37,8,624.666666666667,"[[1,2,3,4],[5,6,7,8]]",1000,0,60,10,0.5,0,"stable",FALSE,TRUE,"2/3","1/3",100,"A",0,10,0.01,TRUE,"[.25,.5,.75,1,1.25,1.5,1.75]",49.1
"166",4,2,"5","2016-05-10 14:09:18.600",14629145586,"state",3.32,"2",2,3.32,8,442.666666666667,"[[1,2,3,4],[5,6,7,8]]",1000,0,60,10,0.5,0,"stable",FALSE,TRUE,"2/3","1/3",100,"A",0,10,0.01,TRUE,"[.25,.5,.75,1,1.25,1.5,1.75]",49.1
"167",4,2,"5","2016-05-10 14:09:18.600",14629145586,"state",1.23,"3",3,6.06,8,583.111111111111,"[[1,2,3,4],[5,6,7,8]]",1000,0,60,10,0.5,0,"stable",FALSE,TRUE,"2/3","1/3",100,"A",0,10,0.01,TRUE,"[.25,.5,.75,1,1.25,1.5,1.75]",49.1
"168",4,2,"5","2016-05-10 14:09:18.600",14629145586,"state",6.17,"4",4,4.81,8,478.888888888889,"[[1,2,3,4],[5,6,7,8]]",1000,0,60,10,0.5,0,"stable",FALSE,TRUE,"2/3","1/3",100,"A",0,10,0.01,TRUE,"[.25,.5,.75,1,1.25,1.5,1.75]",49.1
"169",4,2,"5","2016-05-10 14:09:24.800",14629145648,"state",9.39,"1",1,5.72,9,508.444444444445,"[[1,2,3,4],[5,6,7,8]]",1000,0,60,10,0.5,0,"stable",FALSE,TRUE,"2/3","1/3",100,"A",0,10,0.01,TRUE,"[.25,.5,.75,1,1.25,1.5,1.75]",55.3
"170",4,2,"5","2016-05-10 14:09:24.800",14629145648,"state",0.83,"2",2,4.21,9,523.333333333333,"[[1,2,3,4],[5,6,7,8]]",1000,0,60,10,0.5,0,"stable",FALSE,TRUE,"2/3","1/3",100,"A",0,10,0.01,TRUE,"[.25,.5,.75,1,1.25,1.5,1.75]",55.3
"171",4,2,"5","2016-05-10 14:09:24.800",14629145648,"state",2.75,"3",3,2.75,9,366.666666666667,"[[1,2,3,4],[5,6,7,8]]",1000,0,60,10,0.5,0,"stable",FALSE,TRUE,"2/3","1/3",100,"A",0,10,0.01,TRUE,"[.25,.5,.75,1,1.25,1.5,1.75]",55.3
"172",4,2,"5","2016-05-10 14:09:24.800",14629145648,"state",2.26,"4",4,7.26,9,517.333333333333,"[[1,2,3,4],[5,6,7,8]]",1000,0,60,10,0.5,0,"stable",FALSE,TRUE,"2/3","1/3",100,"A",0,10,0.01,TRUE,"[.25,.5,.75,1,1.25,1.5,1.75]",55.3
"173",4,2,"5","2016-05-10 14:09:30.900",14629145709,"state",4.69,"1",1,4.69,10,416.888888888889,"[[1,2,3,4],[5,6,7,8]]",1000,0,60,10,0.5,0,"stable",FALSE,TRUE,"2/3","1/3",100,"A",0,10,0.01,TRUE,"[.25,.5,.75,1,1.25,1.5,1.75]",61.4
"174",4,2,"5","2016-05-10 14:09:30.900",14629145709,"state",2.58,"2",2,2.58,10,344,"[[1,2,3,4],[5,6,7,8]]",1000,0,60,10,0.5,0,"stable",FALSE,TRUE,"2/3","1/3",100,"A",0,10,0.01,TRUE,"[.25,.5,.75,1,1.25,1.5,1.75]",61.4
"175",4,2,"5","2016-05-10 14:09:30.900",14629145709,"state",6.02,"3",3,6.02,10,401.333333333333,"[[1,2,3,4],[5,6,7,8]]",1000,0,60,10,0.5,0,"stable",FALSE,TRUE,"2/3","1/3",100,"A",0,10,0.01,TRUE,"[.25,.5,.75,1,1.25,1.5,1.75]",61.4
"176",4,2,"5","2016-05-10 14:09:30.900",14629145709,"state",8.71,"4",4,3.22,10,302.222222222222,"[[1,2,3,4],[5,6,7,8]]",1000,0,60,10,0.5,0,"stable",FALSE,TRUE,"2/3","1/3",100,"A",0,10,0.01,TRUE,"[.25,.5,.75,1,1.25,1.5,1.75]",61.4
"177",5,2,"5","2016-05-10 14:09:42.500",14629145825,"state",0.25,"1",1,0.25,-1,33.3333333333333,"[[1,2,3,4],[5,6,7,8]]",1000,0,60,0,0.01,0,"stable",FALSE,TRUE,"2/3","1/3",100,"A",0,10,0.01,TRUE,"[.25,.5,.75,1,1.25,1.5,1.75]",0
"178",5,2,"5","2016-05-10 14:09:42.500",14629145825,"state",0.5,"2",2,0.5,-1,55.5555555555556,"[[1,2,3,4],[5,6,7,8]]",1000,0,60,0,0.01,0,"stable",FALSE,TRUE,"2/3","1/3",100,"A",0,10,0.01,TRUE,"[.25,.5,.75,1,1.25,1.5,1.75]",0
"179",5,2,"5","2016-05-10 14:09:42.500",14629145825,"state",0.75,"3",3,0.75,-1,66.6666666666667,"[[1,2,3,4],[5,6,7,8]]",1000,0,60,0,0.01,0,"stable",FALSE,TRUE,"2/3","1/3",100,"A",0,10,0.01,TRUE,"[.25,.5,.75,1,1.25,1.5,1.75]",0
"180",5,2,"5","2016-05-10 14:09:42.500",14629145825,"state",1,"4",4,1,-1,66.6666666666667,"[[1,2,3,4],[5,6,7,8]]",1000,0,60,0,0.01,0,"stable",FALSE,TRUE,"2/3","1/3",100,"A",0,10,0.01,TRUE,"[.25,.5,.75,1,1.25,1.5,1.75]",0
"181",5,2,"5","2016-05-10 14:09:43.700",14629145837,"state",0.25,"1",1,0.25,-1,33.3333333333333,"[[1,2,3,4],[5,6,7,8]]",1000,0,60,0,0.01,0,"stable",FALSE,TRUE,"2/3","1/3",100,"A",0,10,0.01,TRUE,"[.25,.5,.75,1,1.25,1.5,1.75]",1.2
"182",5,2,"5","2016-05-10 14:09:43.700",14629145837,"state",0.5,"2",2,0.5,-1,55.5555555555556,"[[1,2,3,4],[5,6,7,8]]",1000,0,60,0,0.01,0,"stable",FALSE,TRUE,"2/3","1/3",100,"A",0,10,0.01,TRUE,"[.25,.5,.75,1,1.25,1.5,1.75]",1.2
"183",5,2,"5","2016-05-10 14:09:43.700",14629145837,"state",0.75,"3",3,0.75,-1,66.6666666666667,"[[1,2,3,4],[5,6,7,8]]",1000,0,60,0,0.01,0,"stable",FALSE,TRUE,"2/3","1/3",100,"A",0,10,0.01,TRUE,"[.25,.5,.75,1,1.25,1.5,1.75]",1.2
"184",5,2,"5","2016-05-10 14:09:43.700",14629145837,"state",1,"4",4,1,-1,66.6666666666667,"[[1,2,3,4],[5,6,7,8]]",1000,0,60,0,0.01,0,"stable",FALSE,TRUE,"2/3","1/3",100,"A",0,10,0.01,TRUE,"[.25,.5,.75,1,1.25,1.5,1.75]",1.2
"185",5,2,"5","2016-05-10 14:09:45.000",14629145850,"state",0.25,"1",1,0.25,-1,33.3333333333333,"[[1,2,3,4],[5,6,7,8]]",1000,0,60,0,0.01,0,"stable",FALSE,TRUE,"2/3","1/3",100,"A",0,10,0.01,TRUE,"[.25,.5,.75,1,1.25,1.5,1.75]",2.5
"186",5,2,"5","2016-05-10 14:09:45.000",14629145850,"state",0.5,"2",2,0.5,-1,55.5555555555556,"[[1,2,3,4],[5,6,7,8]]",1000,0,60,0,0.01,0,"stable",FALSE,TRUE,"2/3","1/3",100,"A",0,10,0.01,TRUE,"[.25,.5,.75,1,1.25,1.5,1.75]",2.5
"187",5,2,"5","2016-05-10 14:09:45.000",14629145850,"state",0.75,"3",3,0.75,-1,66.6666666666667,"[[1,2,3,4],[5,6,7,8]]",1000,0,60,0,0.01,0,"stable",FALSE,TRUE,"2/3","1/3",100,"A",0,10,0.01,TRUE,"[.25,.5,.75,1,1.25,1.5,1.75]",2.5
"188",5,2,"5","2016-05-10 14:09:45.000",14629145850,"state",1,"4",4,1,-1,66.6666666666667,"[[1,2,3,4],[5,6,7,8]]",1000,0,60,0,0.01,0,"stable",FALSE,TRUE,"2/3","1/3",100,"A",0,10,0.01,TRUE,"[.25,.5,.75,1,1.25,1.5,1.75]",2.5
"189",5,2,"5","2016-05-10 14:09:46.200",14629145862,"state",0.25,"1",1,0.25,-1,33.3333333333333,"[[1,2,3,4],[5,6,7,8]]",1000,0,60,0,0.01,0,"stable",FALSE,TRUE,"2/3","1/3",100,"A",0,10,0.01,TRUE,"[.25,.5,.75,1,1.25,1.5,1.75]",3.7
"190",5,2,"5","2016-05-10 14:09:46.200",14629145862,"state",0.5,"2",2,0.5,-1,55.5555555555556,"[[1,2,3,4],[5,6,7,8]]",1000,0,60,0,0.01,0,"stable",FALSE,TRUE,"2/3","1/3",100,"A",0,10,0.01,TRUE,"[.25,.5,.75,1,1.25,1.5,1.75]",3.7
"191",5,2,"5","2016-05-10 14:09:46.200",14629145862,"state",0.75,"3",3,0.75,-1,66.6666666666667,"[[1,2,3,4],[5,6,7,8]]",1000,0,60,0,0.01,0,"stable",FALSE,TRUE,"2/3","1/3",100,"A",0,10,0.01,TRUE,"[.25,.5,.75,1,1.25,1.5,1.75]",3.7
"192",5,2,"5","2016-05-10 14:09:46.200",14629145862,"state",1,"4",4,1,-1,66.6666666666667,"[[1,2,3,4],[5,6,7,8]]",1000,0,60,0,0.01,0,"stable",FALSE,TRUE,"2/3","1/3",100,"A",0,10,0.01,TRUE,"[.25,.5,.75,1,1.25,1.5,1.75]",3.7
"193",5,2,"5","2016-05-10 14:09:47.400",14629145874,"state",0.25,"1",1,0.25,-1,33.3333333333333,"[[1,2,3,4],[5,6,7,8]]",1000,0,60,0,0.01,0,"stable",FALSE,TRUE,"2/3","1/3",100,"A",0,10,0.01,TRUE,"[.25,.5,.75,1,1.25,1.5,1.75]",4.9
"194",5,2,"5","2016-05-10 14:09:47.400",14629145874,"state",0.5,"2",2,0.5,-1,55.5555555555556,"[[1,2,3,4],[5,6,7,8]]",1000,0,60,0,0.01,0,"stable",FALSE,TRUE,"2/3","1/3",100,"A",0,10,0.01,TRUE,"[.25,.5,.75,1,1.25,1.5,1.75]",4.9
"195",5,2,"5","2016-05-10 14:09:47.400",14629145874,"state",0.75,"3",3,0.75,-1,66.6666666666667,"[[1,2,3,4],[5,6,7,8]]",1000,0,60,0,0.01,0,"stable",FALSE,TRUE,"2/3","1/3",100,"A",0,10,0.01,TRUE,"[.25,.5,.75,1,1.25,1.5,1.75]",4.9
"196",5,2,"5","2016-05-10 14:09:47.400",14629145874,"state",1,"4",4,1,-1,66.6666666666667,"[[1,2,3,4],[5,6,7,8]]",1000,0,60,0,0.01,0,"stable",FALSE,TRUE,"2/3","1/3",100,"A",0,10,0.01,TRUE,"[.25,.5,.75,1,1.25,1.5,1.75]",4.9
"197",5,2,"5","2016-05-10 14:09:48.600",14629145886,"state",0.25,"1",1,0.25,-1,33.3333333333333,"[[1,2,3,4],[5,6,7,8]]",1000,0,60,0,0.01,0,"stable",FALSE,TRUE,"2/3","1/3",100,"A",0,10,0.01,TRUE,"[.25,.5,.75,1,1.25,1.5,1.75]",6.1
"198",5,2,"5","2016-05-10 14:09:48.600",14629145886,"state",0.5,"2",2,0.5,-1,55.5555555555556,"[[1,2,3,4],[5,6,7,8]]",1000,0,60,0,0.01,0,"stable",FALSE,TRUE,"2/3","1/3",100,"A",0,10,0.01,TRUE,"[.25,.5,.75,1,1.25,1.5,1.75]",6.1
"199",5,2,"5","2016-05-10 14:09:48.600",14629145886,"state",0.75,"3",3,0.75,-1,66.6666666666667,"[[1,2,3,4],[5,6,7,8]]",1000,0,60,0,0.01,0,"stable",FALSE,TRUE,"2/3","1/3",100,"A",0,10,0.01,TRUE,"[.25,.5,.75,1,1.25,1.5,1.75]",6.1
"200",5,2,"5","2016-05-10 14:09:48.600",14629145886,"state",1,"4",4,1,-1,66.6666666666667,"[[1,2,3,4],[5,6,7,8]]",1000,0,60,0,0.01,0,"stable",FALSE,TRUE,"2/3","1/3",100,"A",0,10,0.01,TRUE,"[.25,.5,.75,1,1.25,1.5,1.75]",6.1
"201",5,2,"5","2016-05-10 14:09:49.900",14629145899,"state",0.25,"1",1,0.25,-1,33.3333333333333,"[[1,2,3,4],[5,6,7,8]]",1000,0,60,0,0.01,0,"stable",FALSE,TRUE,"2/3","1/3",100,"A",0,10,0.01,TRUE,"[.25,.5,.75,1,1.25,1.5,1.75]",7.4
"202",5,2,"5","2016-05-10 14:09:49.900",14629145899,"state",0.5,"2",2,0.5,-1,55.5555555555556,"[[1,2,3,4],[5,6,7,8]]",1000,0,60,0,0.01,0,"stable",FALSE,TRUE,"2/3","1/3",100,"A",0,10,0.01,TRUE,"[.25,.5,.75,1,1.25,1.5,1.75]",7.4
"203",5,2,"5","2016-05-10 14:09:49.900",14629145899,"state",0.75,"3",3,0.75,-1,66.6666666666667,"[[1,2,3,4],[5,6,7,8]]",1000,0,60,0,0.01,0,"stable",FALSE,TRUE,"2/3","1/3",100,"A",0,10,0.01,TRUE,"[.25,.5,.75,1,1.25,1.5,1.75]",7.4
"204",5,2,"5","2016-05-10 14:09:49.900",14629145899,"state",1,"4",4,1,-1,66.6666666666667,"[[1,2,3,4],[5,6,7,8]]",1000,0,60,0,0.01,0,"stable",FALSE,TRUE,"2/3","1/3",100,"A",0,10,0.01,TRUE,"[.25,.5,.75,1,1.25,1.5,1.75]",7.4
"205",5,2,"5","2016-05-10 14:09:51.100",14629145911,"state",0.25,"1",1,0.25,-1,33.3333333333333,"[[1,2,3,4],[5,6,7,8]]",1000,0,60,0,0.01,0,"stable",FALSE,TRUE,"2/3","1/3",100,"A",0,10,0.01,TRUE,"[.25,.5,.75,1,1.25,1.5,1.75]",8.6
"206",5,2,"5","2016-05-10 14:09:51.100",14629145911,"state",0.5,"2",2,0.5,-1,55.5555555555556,"[[1,2,3,4],[5,6,7,8]]",1000,0,60,0,0.01,0,"stable",FALSE,TRUE,"2/3","1/3",100,"A",0,10,0.01,TRUE,"[.25,.5,.75,1,1.25,1.5,1.75]",8.6
"207",5,2,"5","2016-05-10 14:09:51.100",14629145911,"state",0.75,"3",3,0.75,-1,66.6666666666667,"[[1,2,3,4],[5,6,7,8]]",1000,0,60,0,0.01,0,"stable",FALSE,TRUE,"2/3","1/3",100,"A",0,10,0.01,TRUE,"[.25,.5,.75,1,1.25,1.5,1.75]",8.6
"208",5,2,"5","2016-05-10 14:09:51.100",14629145911,"state",1,"4",4,1,-1,66.6666666666667,"[[1,2,3,4],[5,6,7,8]]",1000,0,60,0,0.01,0,"stable",FALSE,TRUE,"2/3","1/3",100,"A",0,10,0.01,TRUE,"[.25,.5,.75,1,1.25,1.5,1.75]",8.6
"209",5,2,"5","2016-05-10 14:09:52.300",14629145923,"state",0.25,"1",1,0.25,-1,33.3333333333333,"[[1,2,3,4],[5,6,7,8]]",1000,0,60,0,0.01,0,"stable",FALSE,TRUE,"2/3","1/3",100,"A",0,10,0.01,TRUE,"[.25,.5,.75,1,1.25,1.5,1.75]",9.8
"210",5,2,"5","2016-05-10 14:09:52.300",14629145923,"state",0.5,"2",2,0.5,-1,55.5555555555556,"[[1,2,3,4],[5,6,7,8]]",1000,0,60,0,0.01,0,"stable",FALSE,TRUE,"2/3","1/3",100,"A",0,10,0.01,TRUE,"[.25,.5,.75,1,1.25,1.5,1.75]",9.8
"211",5,2,"5","2016-05-10 14:09:52.300",14629145923,"state",0.75,"3",3,0.75,-1,66.6666666666667,"[[1,2,3,4],[5,6,7,8]]",1000,0,60,0,0.01,0,"stable",FALSE,TRUE,"2/3","1/3",100,"A",0,10,0.01,TRUE,"[.25,.5,.75,1,1.25,1.5,1.75]",9.8
"212",5,2,"5","2016-05-10 14:09:52.300",14629145923,"state",1,"4",4,1,-1,66.6666666666667,"[[1,2,3,4],[5,6,7,8]]",1000,0,60,0,0.01,0,"stable",FALSE,TRUE,"2/3","1/3",100,"A",0,10,0.01,TRUE,"[.25,.5,.75,1,1.25,1.5,1.75]",9.8
"213",5,2,"5","2016-05-10 14:09:53.600",14629145936,"state",0.25,"1",1,0.25,-1,33.3333333333333,"[[1,2,3,4],[5,6,7,8]]",1000,0,60,0,0.01,0,"stable",FALSE,TRUE,"2/3","1/3",100,"A",0,10,0.01,TRUE,"[.25,.5,.75,1,1.25,1.5,1.75]",11.1
"214",5,2,"5","2016-05-10 14:09:53.600",14629145936,"state",0.5,"2",2,0.5,-1,55.5555555555556,"[[1,2,3,4],[5,6,7,8]]",1000,0,60,0,0.01,0,"stable",FALSE,TRUE,"2/3","1/3",100,"A",0,10,0.01,TRUE,"[.25,.5,.75,1,1.25,1.5,1.75]",11.1
"215",5,2,"5","2016-05-10 14:09:53.600",14629145936,"state",0.75,"3",3,0.75,-1,66.6666666666667,"[[1,2,3,4],[5,6,7,8]]",1000,0,60,0,0.01,0,"stable",FALSE,TRUE,"2/3","1/3",100,"A",0,10,0.01,TRUE,"[.25,.5,.75,1,1.25,1.5,1.75]",11.1
"216",5,2,"5","2016-05-10 14:09:53.600",14629145936,"state",1,"4",4,1,-1,66.6666666666667,"[[1,2,3,4],[5,6,7,8]]",1000,0,60,0,0.01,0,"stable",FALSE,TRUE,"2/3","1/3",100,"A",0,10,0.01,TRUE,"[.25,.5,.75,1,1.25,1.5,1.75]",11.1
"217",5,2,"5","2016-05-10 14:09:54.800",14629145948,"state",0.25,"1",1,0.25,-1,33.3333333333333,"[[1,2,3,4],[5,6,7,8]]",1000,0,60,0,0.01,0,"stable",FALSE,TRUE,"2/3","1/3",100,"A",0,10,0.01,TRUE,"[.25,.5,.75,1,1.25,1.5,1.75]",12.3
"218",5,2,"5","2016-05-10 14:09:54.800",14629145948,"state",0.5,"2",2,0.5,-1,55.5555555555556,"[[1,2,3,4],[5,6,7,8]]",1000,0,60,0,0.01,0,"stable",FALSE,TRUE,"2/3","1/3",100,"A",0,10,0.01,TRUE,"[.25,.5,.75,1,1.25,1.5,1.75]",12.3
"219",5,2,"5","2016-05-10 14:09:54.800",14629145948,"state",0.75,"3",3,0.75,-1,66.6666666666667,"[[1,2,3,4],[5,6,7,8]]",1000,0,60,0,0.01,0,"stable",FALSE,TRUE,"2/3","1/3",100,"A",0,10,0.01,TRUE,"[.25,.5,.75,1,1.25,1.5,1.75]",12.3
"220",5,2,"5","2016-05-10 14:09:54.800",14629145948,"state",1,"4",4,1,-1,66.6666666666667,"[[1,2,3,4],[5,6,7,8]]",1000,0,60,0,0.01,0,"stable",FALSE,TRUE,"2/3","1/3",100,"A",0,10,0.01,TRUE,"[.25,.5,.75,1,1.25,1.5,1.75]",12.3
"221",5,2,"5","2016-05-10 14:09:56.000",14629145960,"state",0.25,"1",1,0.25,-1,33.3333333333333,"[[1,2,3,4],[5,6,7,8]]",1000,0,60,0,0.01,0,"stable",FALSE,TRUE,"2/3","1/3",100,"A",0,10,0.01,TRUE,"[.25,.5,.75,1,1.25,1.5,1.75]",13.5
"222",5,2,"5","2016-05-10 14:09:56.000",14629145960,"state",0.5,"2",2,0.5,-1,55.5555555555556,"[[1,2,3,4],[5,6,7,8]]",1000,0,60,0,0.01,0,"stable",FALSE,TRUE,"2/3","1/3",100,"A",0,10,0.01,TRUE,"[.25,.5,.75,1,1.25,1.5,1.75]",13.5
"223",5,2,"5","2016-05-10 14:09:56.000",14629145960,"state",0.75,"3",3,0.75,-1,66.6666666666667,"[[1,2,3,4],[5,6,7,8]]",1000,0,60,0,0.01,0,"stable",FALSE,TRUE,"2/3","1/3",100,"A",0,10,0.01,TRUE,"[.25,.5,.75,1,1.25,1.5,1.75]",13.5
"224",5,2,"5","2016-05-10 14:09:56.000",14629145960,"state",1,"4",4,1,-1,66.6666666666667,"[[1,2,3,4],[5,6,7,8]]",1000,0,60,0,0.01,0,"stable",FALSE,TRUE,"2/3","1/3",100,"A",0,10,0.01,TRUE,"[.25,.5,.75,1,1.25,1.5,1.75]",13.5
"225",5,2,"5","2016-05-10 14:09:57.200",14629145972,"state",0.25,"1",1,0.25,-1,33.3333333333333,"[[1,2,3,4],[5,6,7,8]]",1000,0,60,0,0.01,0,"stable",FALSE,TRUE,"2/3","1/3",100,"A",0,10,0.01,TRUE,"[.25,.5,.75,1,1.25,1.5,1.75]",14.7
"226",5,2,"5","2016-05-10 14:09:57.200",14629145972,"state",0.5,"2",2,0.5,-1,55.5555555555556,"[[1,2,3,4],[5,6,7,8]]",1000,0,60,0,0.01,0,"stable",FALSE,TRUE,"2/3","1/3",100,"A",0,10,0.01,TRUE,"[.25,.5,.75,1,1.25,1.5,1.75]",14.7
"227",5,2,"5","2016-05-10 14:09:57.200",14629145972,"state",0.75,"3",3,0.75,-1,66.6666666666667,"[[1,2,3,4],[5,6,7,8]]",1000,0,60,0,0.01,0,"stable",FALSE,TRUE,"2/3","1/3",100,"A",0,10,0.01,TRUE,"[.25,.5,.75,1,1.25,1.5,1.75]",14.7
"228",5,2,"5","2016-05-10 14:09:57.200",14629145972,"state",1,"4",4,1,-1,66.6666666666667,"[[1,2,3,4],[5,6,7,8]]",1000,0,60,0,0.01,0,"stable",FALSE,TRUE,"2/3","1/3",100,"A",0,10,0.01,TRUE,"[.25,.5,.75,1,1.25,1.5,1.75]",14.7
"229",5,2,"5","2016-05-10 14:09:58.500",14629145985,"state",0.25,"1",1,0.25,-1,33.3333333333333,"[[1,2,3,4],[5,6,7,8]]",1000,0,60,0,0.01,0,"stable",FALSE,TRUE,"2/3","1/3",100,"A",0,10,0.01,TRUE,"[.25,.5,.75,1,1.25,1.5,1.75]",16
"230",5,2,"5","2016-05-10 14:09:58.500",14629145985,"state",0.5,"2",2,0.5,-1,55.5555555555556,"[[1,2,3,4],[5,6,7,8]]",1000,0,60,0,0.01,0,"stable",FALSE,TRUE,"2/3","1/3",100,"A",0,10,0.01,TRUE,"[.25,.5,.75,1,1.25,1.5,1.75]",16
"231",5,2,"5","2016-05-10 14:09:58.500",14629145985,"state",0.75,"3",3,0.75,-1,66.6666666666667,"[[1,2,3,4],[5,6,7,8]]",1000,0,60,0,0.01,0,"stable",FALSE,TRUE,"2/3","1/3",100,"A",0,10,0.01,TRUE,"[.25,.5,.75,1,1.25,1.5,1.75]",16
"232",5,2,"5","2016-05-10 14:09:58.500",14629145985,"state",1,"4",4,1,-1,66.6666666666667,"[[1,2,3,4],[5,6,7,8]]",1000,0,60,0,0.01,0,"stable",FALSE,TRUE,"2/3","1/3",100,"A",0,10,0.01,TRUE,"[.25,.5,.75,1,1.25,1.5,1.75]",16
"233",5,2,"5","2016-05-10 14:09:59.700",14629145997,"state",0.25,"1",1,0.25,-1,33.3333333333333,"[[1,2,3,4],[5,6,7,8]]",1000,0,60,0,0.01,0,"stable",FALSE,TRUE,"2/3","1/3",100,"A",0,10,0.01,TRUE,"[.25,.5,.75,1,1.25,1.5,1.75]",17.2
"234",5,2,"5","2016-05-10 14:09:59.700",14629145997,"state",0.5,"2",2,0.5,-1,55.5555555555556,"[[1,2,3,4],[5,6,7,8]]",1000,0,60,0,0.01,0,"stable",FALSE,TRUE,"2/3","1/3",100,"A",0,10,0.01,TRUE,"[.25,.5,.75,1,1.25,1.5,1.75]",17.2
"235",5,2,"5","2016-05-10 14:09:59.700",14629145997,"state",0.75,"3",3,0.75,-1,66.6666666666667,"[[1,2,3,4],[5,6,7,8]]",1000,0,60,0,0.01,0,"stable",FALSE,TRUE,"2/3","1/3",100,"A",0,10,0.01,TRUE,"[.25,.5,.75,1,1.25,1.5,1.75]",17.2
"236",5,2,"5","2016-05-10 14:09:59.700",14629145997,"state",1,"4",4,1,-1,66.6666666666667,"[[1,2,3,4],[5,6,7,8]]",1000,0,60,0,0.01,0,"stable",FALSE,TRUE,"2/3","1/3",100,"A",0,10,0.01,TRUE,"[.25,.5,.75,1,1.25,1.5,1.75]",17.2
"237",5,2,"5","2016-05-10 14:10:00.900",14629146009,"state",0.25,"1",1,0.25,-1,33.3333333333333,"[[1,2,3,4],[5,6,7,8]]",1000,0,60,0,0.01,0,"stable",FALSE,TRUE,"2/3","1/3",100,"A",0,10,0.01,TRUE,"[.25,.5,.75,1,1.25,1.5,1.75]",18.4
"238",5,2,"5","2016-05-10 14:10:00.900",14629146009,"state",0.5,"2",2,0.5,-1,55.5555555555556,"[[1,2,3,4],[5,6,7,8]]",1000,0,60,0,0.01,0,"stable",FALSE,TRUE,"2/3","1/3",100,"A",0,10,0.01,TRUE,"[.25,.5,.75,1,1.25,1.5,1.75]",18.4
"239",5,2,"5","2016-05-10 14:10:00.900",14629146009,"state",0.75,"3",3,0.75,-1,66.6666666666667,"[[1,2,3,4],[5,6,7,8]]",1000,0,60,0,0.01,0,"stable",FALSE,TRUE,"2/3","1/3",100,"A",0,10,0.01,TRUE,"[.25,.5,.75,1,1.25,1.5,1.75]",18.4
"240",5,2,"5","2016-05-10 14:10:00.900",14629146009,"state",1,"4",4,1,-1,66.6666666666667,"[[1,2,3,4],[5,6,7,8]]",1000,0,60,0,0.01,0,"stable",FALSE,TRUE,"2/3","1/3",100,"A",0,10,0.01,TRUE,"[.25,.5,.75,1,1.25,1.5,1.75]",18.4
"241",5,2,"5","2016-05-10 14:10:02.200",14629146022,"state",0.25,"1",1,0.25,-1,33.3333333333333,"[[1,2,3,4],[5,6,7,8]]",1000,0,60,0,0.01,0,"stable",FALSE,TRUE,"2/3","1/3",100,"A",0,10,0.01,TRUE,"[.25,.5,.75,1,1.25,1.5,1.75]",19.7
"242",5,2,"5","2016-05-10 14:10:02.200",14629146022,"state",0.5,"2",2,0.5,-1,55.5555555555556,"[[1,2,3,4],[5,6,7,8]]",1000,0,60,0,0.01,0,"stable",FALSE,TRUE,"2/3","1/3",100,"A",0,10,0.01,TRUE,"[.25,.5,.75,1,1.25,1.5,1.75]",19.7
"243",5,2,"5","2016-05-10 14:10:02.200",14629146022,"state",0.75,"3",3,0.75,-1,66.6666666666667,"[[1,2,3,4],[5,6,7,8]]",1000,0,60,0,0.01,0,"stable",FALSE,TRUE,"2/3","1/3",100,"A",0,10,0.01,TRUE,"[.25,.5,.75,1,1.25,1.5,1.75]",19.7
"244",5,2,"5","2016-05-10 14:10:02.200",14629146022,"state",1,"4",4,1,-1,66.6666666666667,"[[1,2,3,4],[5,6,7,8]]",1000,0,60,0,0.01,0,"stable",FALSE,TRUE,"2/3","1/3",100,"A",0,10,0.01,TRUE,"[.25,.5,.75,1,1.25,1.5,1.75]",19.7
"245",5,2,"5","2016-05-10 14:10:03.400",14629146034,"state",0.25,"1",1,0.25,-1,33.3333333333333,"[[1,2,3,4],[5,6,7,8]]",1000,0,60,0,0.01,0,"stable",FALSE,TRUE,"2/3","1/3",100,"A",0,10,0.01,TRUE,"[.25,.5,.75,1,1.25,1.5,1.75]",20.9
"246",5,2,"5","2016-05-10 14:10:03.400",14629146034,"state",0.5,"2",2,0.5,-1,55.5555555555556,"[[1,2,3,4],[5,6,7,8]]",1000,0,60,0,0.01,0,"stable",FALSE,TRUE,"2/3","1/3",100,"A",0,10,0.01,TRUE,"[.25,.5,.75,1,1.25,1.5,1.75]",20.9
"247",5,2,"5","2016-05-10 14:10:03.400",14629146034,"state",0.75,"3",3,0.75,-1,66.6666666666667,"[[1,2,3,4],[5,6,7,8]]",1000,0,60,0,0.01,0,"stable",FALSE,TRUE,"2/3","1/3",100,"A",0,10,0.01,TRUE,"[.25,.5,.75,1,1.25,1.5,1.75]",20.9
"248",5,2,"5","2016-05-10 14:10:03.400",14629146034,"state",1,"4",4,1,-1,66.6666666666667,"[[1,2,3,4],[5,6,7,8]]",1000,0,60,0,0.01,0,"stable",FALSE,TRUE,"2/3","1/3",100,"A",0,10,0.01,TRUE,"[.25,.5,.75,1,1.25,1.5,1.75]",20.9
"249",5,2,"5","2016-05-10 14:10:04.600",14629146046,"state",0.25,"1",1,0.25,-1,33.3333333333333,"[[1,2,3,4],[5,6,7,8]]",1000,0,60,0,0.01,0,"stable",FALSE,TRUE,"2/3","1/3",100,"A",0,10,0.01,TRUE,"[.25,.5,.75,1,1.25,1.5,1.75]",22.1
"250",5,2,"5","2016-05-10 14:10:04.600",14629146046,"state",0.5,"2",2,0.5,-1,55.5555555555556,"[[1,2,3,4],[5,6,7,8]]",1000,0,60,0,0.01,0,"stable",FALSE,TRUE,"2/3","1/3",100,"A",0,10,0.01,TRUE,"[.25,.5,.75,1,1.25,1.5,1.75]",22.1
"251",5,2,"5","2016-05-10 14:10:04.600",14629146046,"state",0.75,"3",3,0.75,-1,66.6666666666667,"[[1,2,3,4],[5,6,7,8]]",1000,0,60,0,0.01,0,"stable",FALSE,TRUE,"2/3","1/3",100,"A",0,10,0.01,TRUE,"[.25,.5,.75,1,1.25,1.5,1.75]",22.1
"252",5,2,"5","2016-05-10 14:10:04.600",14629146046,"state",1,"4",4,1,-1,66.6666666666667,"[[1,2,3,4],[5,6,7,8]]",1000,0,60,0,0.01,0,"stable",FALSE,TRUE,"2/3","1/3",100,"A",0,10,0.01,TRUE,"[.25,.5,.75,1,1.25,1.5,1.75]",22.1
"253",5,2,"5","2016-05-10 14:10:05.800",14629146058,"state",0.25,"1",1,0.25,-1,33.3333333333333,"[[1,2,3,4],[5,6,7,8]]",1000,0,60,0,0.01,0,"stable",FALSE,TRUE,"2/3","1/3",100,"A",0,10,0.01,TRUE,"[.25,.5,.75,1,1.25,1.5,1.75]",23.3
"254",5,2,"5","2016-05-10 14:10:05.800",14629146058,"state",0.5,"2",2,0.5,-1,55.5555555555556,"[[1,2,3,4],[5,6,7,8]]",1000,0,60,0,0.01,0,"stable",FALSE,TRUE,"2/3","1/3",100,"A",0,10,0.01,TRUE,"[.25,.5,.75,1,1.25,1.5,1.75]",23.3
"255",5,2,"5","2016-05-10 14:10:05.800",14629146058,"state",0.75,"3",3,0.75,-1,66.6666666666667,"[[1,2,3,4],[5,6,7,8]]",1000,0,60,0,0.01,0,"stable",FALSE,TRUE,"2/3","1/3",100,"A",0,10,0.01,TRUE,"[.25,.5,.75,1,1.25,1.5,1.75]",23.3
"256",5,2,"5","2016-05-10 14:10:05.800",14629146058,"state",1,"4",4,1,-1,66.6666666666667,"[[1,2,3,4],[5,6,7,8]]",1000,0,60,0,0.01,0,"stable",FALSE,TRUE,"2/3","1/3",100,"A",0,10,0.01,TRUE,"[.25,.5,.75,1,1.25,1.5,1.75]",23.3
"257",5,2,"5","2016-05-10 14:10:07.100",14629146071,"state",0.25,"1",1,0.25,-1,33.3333333333333,"[[1,2,3,4],[5,6,7,8]]",1000,0,60,0,0.01,0,"stable",FALSE,TRUE,"2/3","1/3",100,"A",0,10,0.01,TRUE,"[.25,.5,.75,1,1.25,1.5,1.75]",24.6
"258",5,2,"5","2016-05-10 14:10:07.100",14629146071,"state",0.5,"2",2,0.5,-1,55.5555555555556,"[[1,2,3,4],[5,6,7,8]]",1000,0,60,0,0.01,0,"stable",FALSE,TRUE,"2/3","1/3",100,"A",0,10,0.01,TRUE,"[.25,.5,.75,1,1.25,1.5,1.75]",24.6
"259",5,2,"5","2016-05-10 14:10:07.100",14629146071,"state",0.75,"3",3,0.75,-1,66.6666666666667,"[[1,2,3,4],[5,6,7,8]]",1000,0,60,0,0.01,0,"stable",FALSE,TRUE,"2/3","1/3",100,"A",0,10,0.01,TRUE,"[.25,.5,.75,1,1.25,1.5,1.75]",24.6
"260",5,2,"5","2016-05-10 14:10:07.100",14629146071,"state",1,"4",4,1,-1,66.6666666666667,"[[1,2,3,4],[5,6,7,8]]",1000,0,60,0,0.01,0,"stable",FALSE,TRUE,"2/3","1/3",100,"A",0,10,0.01,TRUE,"[.25,.5,.75,1,1.25,1.5,1.75]",24.6
"261",5,2,"5","2016-05-10 14:10:08.300",14629146083,"state",0.25,"1",1,0.25,-1,33.3333333333333,"[[1,2,3,4],[5,6,7,8]]",1000,0,60,0,0.01,0,"stable",FALSE,TRUE,"2/3","1/3",100,"A",0,10,0.01,TRUE,"[.25,.5,.75,1,1.25,1.5,1.75]",25.8
"262",5,2,"5","2016-05-10 14:10:08.300",14629146083,"state",0.5,"2",2,0.5,-1,55.5555555555556,"[[1,2,3,4],[5,6,7,8]]",1000,0,60,0,0.01,0,"stable",FALSE,TRUE,"2/3","1/3",100,"A",0,10,0.01,TRUE,"[.25,.5,.75,1,1.25,1.5,1.75]",25.8
"263",5,2,"5","2016-05-10 14:10:08.300",14629146083,"state",0.75,"3",3,0.75,-1,66.6666666666667,"[[1,2,3,4],[5,6,7,8]]",1000,0,60,0,0.01,0,"stable",FALSE,TRUE,"2/3","1/3",100,"A",0,10,0.01,TRUE,"[.25,.5,.75,1,1.25,1.5,1.75]",25.8
"264",5,2,"5","2016-05-10 14:10:08.300",14629146083,"state",1,"4",4,1,-1,66.6666666666667,"[[1,2,3,4],[5,6,7,8]]",1000,0,60,0,0.01,0,"stable",FALSE,TRUE,"2/3","1/3",100,"A",0,10,0.01,TRUE,"[.25,.5,.75,1,1.25,1.5,1.75]",25.8
"265",5,2,"5","2016-05-10 14:10:09.500",14629146095,"state",0.25,"1",1,0.25,-1,33.3333333333333,"[[1,2,3,4],[5,6,7,8]]",1000,0,60,0,0.01,0,"stable",FALSE,TRUE,"2/3","1/3",100,"A",0,10,0.01,TRUE,"[.25,.5,.75,1,1.25,1.5,1.75]",27
"266",5,2,"5","2016-05-10 14:10:09.500",14629146095,"state",0.5,"2",2,0.5,-1,55.5555555555556,"[[1,2,3,4],[5,6,7,8]]",1000,0,60,0,0.01,0,"stable",FALSE,TRUE,"2/3","1/3",100,"A",0,10,0.01,TRUE,"[.25,.5,.75,1,1.25,1.5,1.75]",27
"267",5,2,"5","2016-05-10 14:10:09.500",14629146095,"state",0.75,"3",3,0.75,-1,66.6666666666667,"[[1,2,3,4],[5,6,7,8]]",1000,0,60,0,0.01,0,"stable",FALSE,TRUE,"2/3","1/3",100,"A",0,10,0.01,TRUE,"[.25,.5,.75,1,1.25,1.5,1.75]",27
"268",5,2,"5","2016-05-10 14:10:09.500",14629146095,"state",1,"4",4,1,-1,66.6666666666667,"[[1,2,3,4],[5,6,7,8]]",1000,0,60,0,0.01,0,"stable",FALSE,TRUE,"2/3","1/3",100,"A",0,10,0.01,TRUE,"[.25,.5,.75,1,1.25,1.5,1.75]",27
"269",5,2,"5","2016-05-10 14:10:10.800",14629146108,"state",0.25,"1",1,0.25,-1,33.3333333333333,"[[1,2,3,4],[5,6,7,8]]",1000,0,60,0,0.01,0,"stable",FALSE,TRUE,"2/3","1/3",100,"A",0,10,0.01,TRUE,"[.25,.5,.75,1,1.25,1.5,1.75]",28.3
"270",5,2,"5","2016-05-10 14:10:10.800",14629146108,"state",0.5,"2",2,0.5,-1,55.5555555555556,"[[1,2,3,4],[5,6,7,8]]",1000,0,60,0,0.01,0,"stable",FALSE,TRUE,"2/3","1/3",100,"A",0,10,0.01,TRUE,"[.25,.5,.75,1,1.25,1.5,1.75]",28.3
"271",5,2,"5","2016-05-10 14:10:10.800",14629146108,"state",0.75,"3",3,0.75,-1,66.6666666666667,"[[1,2,3,4],[5,6,7,8]]",1000,0,60,0,0.01,0,"stable",FALSE,TRUE,"2/3","1/3",100,"A",0,10,0.01,TRUE,"[.25,.5,.75,1,1.25,1.5,1.75]",28.3
"272",5,2,"5","2016-05-10 14:10:10.800",14629146108,"state",1,"4",4,1,-1,66.6666666666667,"[[1,2,3,4],[5,6,7,8]]",1000,0,60,0,0.01,0,"stable",FALSE,TRUE,"2/3","1/3",100,"A",0,10,0.01,TRUE,"[.25,.5,.75,1,1.25,1.5,1.75]",28.3
"273",5,2,"5","2016-05-10 14:10:12.000",14629146120,"state",0.25,"1",1,0.25,-1,33.3333333333333,"[[1,2,3,4],[5,6,7,8]]",1000,0,60,0,0.01,0,"stable",FALSE,TRUE,"2/3","1/3",100,"A",0,10,0.01,TRUE,"[.25,.5,.75,1,1.25,1.5,1.75]",29.5
"274",5,2,"5","2016-05-10 14:10:12.000",14629146120,"state",0.5,"2",2,0.5,-1,55.5555555555556,"[[1,2,3,4],[5,6,7,8]]",1000,0,60,0,0.01,0,"stable",FALSE,TRUE,"2/3","1/3",100,"A",0,10,0.01,TRUE,"[.25,.5,.75,1,1.25,1.5,1.75]",29.5
"275",5,2,"5","2016-05-10 14:10:12.000",14629146120,"state",0.75,"3",3,0.75,-1,66.6666666666667,"[[1,2,3,4],[5,6,7,8]]",1000,0,60,0,0.01,0,"stable",FALSE,TRUE,"2/3","1/3",100,"A",0,10,0.01,TRUE,"[.25,.5,.75,1,1.25,1.5,1.75]",29.5
"276",5,2,"5","2016-05-10 14:10:12.000",14629146120,"state",1,"4",4,1,-1,66.6666666666667,"[[1,2,3,4],[5,6,7,8]]",1000,0,60,0,0.01,0,"stable",FALSE,TRUE,"2/3","1/3",100,"A",0,10,0.01,TRUE,"[.25,.5,.75,1,1.25,1.5,1.75]",29.5
"277",5,2,"5","2016-05-10 14:10:13.200",14629146132,"state",0.25,"1",1,0.25,-1,33.3333333333333,"[[1,2,3,4],[5,6,7,8]]",1000,0,60,0,0.01,0,"stable",FALSE,TRUE,"2/3","1/3",100,"A",0,10,0.01,TRUE,"[.25,.5,.75,1,1.25,1.5,1.75]",30.7
"278",5,2,"5","2016-05-10 14:10:13.200",14629146132,"state",0.5,"2",2,0.5,-1,55.5555555555556,"[[1,2,3,4],[5,6,7,8]]",1000,0,60,0,0.01,0,"stable",FALSE,TRUE,"2/3","1/3",100,"A",0,10,0.01,TRUE,"[.25,.5,.75,1,1.25,1.5,1.75]",30.7
"279",5,2,"5","2016-05-10 14:10:13.200",14629146132,"state",0.75,"3",3,0.75,-1,66.6666666666667,"[[1,2,3,4],[5,6,7,8]]",1000,0,60,0,0.01,0,"stable",FALSE,TRUE,"2/3","1/3",100,"A",0,10,0.01,TRUE,"[.25,.5,.75,1,1.25,1.5,1.75]",30.7
"280",5,2,"5","2016-05-10 14:10:13.200",14629146132,"state",1,"4",4,1,-1,66.6666666666667,"[[1,2,3,4],[5,6,7,8]]",1000,0,60,0,0.01,0,"stable",FALSE,TRUE,"2/3","1/3",100,"A",0,10,0.01,TRUE,"[.25,.5,.75,1,1.25,1.5,1.75]",30.7
"281",5,2,"5","2016-05-10 14:10:14.500",14629146145,"state",0.25,"1",1,0.25,-1,33.3333333333333,"[[1,2,3,4],[5,6,7,8]]",1000,0,60,0,0.01,0,"stable",FALSE,TRUE,"2/3","1/3",100,"A",0,10,0.01,TRUE,"[.25,.5,.75,1,1.25,1.5,1.75]",32
"282",5,2,"5","2016-05-10 14:10:14.500",14629146145,"state",0.5,"2",2,0.5,-1,55.5555555555556,"[[1,2,3,4],[5,6,7,8]]",1000,0,60,0,0.01,0,"stable",FALSE,TRUE,"2/3","1/3",100,"A",0,10,0.01,TRUE,"[.25,.5,.75,1,1.25,1.5,1.75]",32
"283",5,2,"5","2016-05-10 14:10:14.500",14629146145,"state",0.75,"3",3,0.75,-1,66.6666666666667,"[[1,2,3,4],[5,6,7,8]]",1000,0,60,0,0.01,0,"stable",FALSE,TRUE,"2/3","1/3",100,"A",0,10,0.01,TRUE,"[.25,.5,.75,1,1.25,1.5,1.75]",32
"284",5,2,"5","2016-05-10 14:10:14.500",14629146145,"state",1,"4",4,1,-1,66.6666666666667,"[[1,2,3,4],[5,6,7,8]]",1000,0,60,0,0.01,0,"stable",FALSE,TRUE,"2/3","1/3",100,"A",0,10,0.01,TRUE,"[.25,.5,.75,1,1.25,1.5,1.75]",32
"285",5,2,"5","2016-05-10 14:10:15.700",14629146157,"state",0.25,"1",1,0.25,-1,33.3333333333333,"[[1,2,3,4],[5,6,7,8]]",1000,0,60,0,0.01,0,"stable",FALSE,TRUE,"2/3","1/3",100,"A",0,10,0.01,TRUE,"[.25,.5,.75,1,1.25,1.5,1.75]",33.2
"286",5,2,"5","2016-05-10 14:10:15.700",14629146157,"state",0.5,"2",2,0.5,-1,55.5555555555556,"[[1,2,3,4],[5,6,7,8]]",1000,0,60,0,0.01,0,"stable",FALSE,TRUE,"2/3","1/3",100,"A",0,10,0.01,TRUE,"[.25,.5,.75,1,1.25,1.5,1.75]",33.2
"287",5,2,"5","2016-05-10 14:10:15.700",14629146157,"state",0.75,"3",3,0.75,-1,66.6666666666667,"[[1,2,3,4],[5,6,7,8]]",1000,0,60,0,0.01,0,"stable",FALSE,TRUE,"2/3","1/3",100,"A",0,10,0.01,TRUE,"[.25,.5,.75,1,1.25,1.5,1.75]",33.2
"288",5,2,"5","2016-05-10 14:10:15.700",14629146157,"state",1,"4",4,1,-1,66.6666666666667,"[[1,2,3,4],[5,6,7,8]]",1000,0,60,0,0.01,0,"stable",FALSE,TRUE,"2/3","1/3",100,"A",0,10,0.01,TRUE,"[.25,.5,.75,1,1.25,1.5,1.75]",33.2
"289",5,2,"5","2016-05-10 14:10:16.900",14629146169,"state",0.25,"1",1,0.25,-1,33.3333333333333,"[[1,2,3,4],[5,6,7,8]]",1000,0,60,0,0.01,0,"stable",FALSE,TRUE,"2/3","1/3",100,"A",0,10,0.01,TRUE,"[.25,.5,.75,1,1.25,1.5,1.75]",34.4
"290",5,2,"5","2016-05-10 14:10:16.900",14629146169,"state",0.5,"2",2,0.5,-1,55.5555555555556,"[[1,2,3,4],[5,6,7,8]]",1000,0,60,0,0.01,0,"stable",FALSE,TRUE,"2/3","1/3",100,"A",0,10,0.01,TRUE,"[.25,.5,.75,1,1.25,1.5,1.75]",34.4
"291",5,2,"5","2016-05-10 14:10:16.900",14629146169,"state",0.75,"3",3,0.75,-1,66.6666666666667,"[[1,2,3,4],[5,6,7,8]]",1000,0,60,0,0.01,0,"stable",FALSE,TRUE,"2/3","1/3",100,"A",0,10,0.01,TRUE,"[.25,.5,.75,1,1.25,1.5,1.75]",34.4
"292",5,2,"5","2016-05-10 14:10:16.900",14629146169,"state",1,"4",4,1,-1,66.6666666666667,"[[1,2,3,4],[5,6,7,8]]",1000,0,60,0,0.01,0,"stable",FALSE,TRUE,"2/3","1/3",100,"A",0,10,0.01,TRUE,"[.25,.5,.75,1,1.25,1.5,1.75]",34.4
"293",5,2,"5","2016-05-10 14:10:18.100",14629146181,"state",0.25,"1",1,0.25,-1,33.3333333333333,"[[1,2,3,4],[5,6,7,8]]",1000,0,60,0,0.01,0,"stable",FALSE,TRUE,"2/3","1/3",100,"A",0,10,0.01,TRUE,"[.25,.5,.75,1,1.25,1.5,1.75]",35.6
"294",5,2,"5","2016-05-10 14:10:18.100",14629146181,"state",0.5,"2",2,0.5,-1,55.5555555555556,"[[1,2,3,4],[5,6,7,8]]",1000,0,60,0,0.01,0,"stable",FALSE,TRUE,"2/3","1/3",100,"A",0,10,0.01,TRUE,"[.25,.5,.75,1,1.25,1.5,1.75]",35.6
"295",5,2,"5","2016-05-10 14:10:18.100",14629146181,"state",0.75,"3",3,0.75,-1,66.6666666666667,"[[1,2,3,4],[5,6,7,8]]",1000,0,60,0,0.01,0,"stable",FALSE,TRUE,"2/3","1/3",100,"A",0,10,0.01,TRUE,"[.25,.5,.75,1,1.25,1.5,1.75]",35.6
"296",5,2,"5","2016-05-10 14:10:18.100",14629146181,"state",1,"4",4,1,-1,66.6666666666667,"[[1,2,3,4],[5,6,7,8]]",1000,0,60,0,0.01,0,"stable",FALSE,TRUE,"2/3","1/3",100,"A",0,10,0.01,TRUE,"[.25,.5,.75,1,1.25,1.5,1.75]",35.6
"297",5,2,"5","2016-05-10 14:10:19.400",14629146194,"state",0.25,"1",1,0.25,-1,33.3333333333333,"[[1,2,3,4],[5,6,7,8]]",1000,0,60,0,0.01,0,"stable",FALSE,TRUE,"2/3","1/3",100,"A",0,10,0.01,TRUE,"[.25,.5,.75,1,1.25,1.5,1.75]",36.9
"298",5,2,"5","2016-05-10 14:10:19.400",14629146194,"state",0.5,"2",2,0.5,-1,55.5555555555556,"[[1,2,3,4],[5,6,7,8]]",1000,0,60,0,0.01,0,"stable",FALSE,TRUE,"2/3","1/3",100,"A",0,10,0.01,TRUE,"[.25,.5,.75,1,1.25,1.5,1.75]",36.9
"299",5,2,"5","2016-05-10 14:10:19.400",14629146194,"state",0.75,"3",3,0.75,-1,66.6666666666667,"[[1,2,3,4],[5,6,7,8]]",1000,0,60,0,0.01,0,"stable",FALSE,TRUE,"2/3","1/3",100,"A",0,10,0.01,TRUE,"[.25,.5,.75,1,1.25,1.5,1.75]",36.9
"300",5,2,"5","2016-05-10 14:10:19.400",14629146194,"state",1,"4",4,1,-1,66.6666666666667,"[[1,2,3,4],[5,6,7,8]]",1000,0,60,0,0.01,0,"stable",FALSE,TRUE,"2/3","1/3",100,"A",0,10,0.01,TRUE,"[.25,.5,.75,1,1.25,1.5,1.75]",36.9
"301",5,2,"5","2016-05-10 14:10:20.600",14629146206,"state",0.25,"1",1,0.25,-1,33.3333333333333,"[[1,2,3,4],[5,6,7,8]]",1000,0,60,0,0.01,0,"stable",FALSE,TRUE,"2/3","1/3",100,"A",0,10,0.01,TRUE,"[.25,.5,.75,1,1.25,1.5,1.75]",38.1
"302",5,2,"5","2016-05-10 14:10:20.600",14629146206,"state",0.5,"2",2,0.5,-1,55.5555555555556,"[[1,2,3,4],[5,6,7,8]]",1000,0,60,0,0.01,0,"stable",FALSE,TRUE,"2/3","1/3",100,"A",0,10,0.01,TRUE,"[.25,.5,.75,1,1.25,1.5,1.75]",38.1
"303",5,2,"5","2016-05-10 14:10:20.600",14629146206,"state",0.75,"3",3,0.75,-1,66.6666666666667,"[[1,2,3,4],[5,6,7,8]]",1000,0,60,0,0.01,0,"stable",FALSE,TRUE,"2/3","1/3",100,"A",0,10,0.01,TRUE,"[.25,.5,.75,1,1.25,1.5,1.75]",38.1
"304",5,2,"5","2016-05-10 14:10:20.600",14629146206,"state",1,"4",4,1,-1,66.6666666666667,"[[1,2,3,4],[5,6,7,8]]",1000,0,60,0,0.01,0,"stable",FALSE,TRUE,"2/3","1/3",100,"A",0,10,0.01,TRUE,"[.25,.5,.75,1,1.25,1.5,1.75]",38.1
"305",5,2,"5","2016-05-10 14:10:21.800",14629146218,"state",0.25,"1",1,0.25,-1,33.3333333333333,"[[1,2,3,4],[5,6,7,8]]",1000,0,60,0,0.01,0,"stable",FALSE,TRUE,"2/3","1/3",100,"A",0,10,0.01,TRUE,"[.25,.5,.75,1,1.25,1.5,1.75]",39.3
"306",5,2,"5","2016-05-10 14:10:21.800",14629146218,"state",0.5,"2",2,0.5,-1,55.5555555555556,"[[1,2,3,4],[5,6,7,8]]",1000,0,60,0,0.01,0,"stable",FALSE,TRUE,"2/3","1/3",100,"A",0,10,0.01,TRUE,"[.25,.5,.75,1,1.25,1.5,1.75]",39.3
"307",5,2,"5","2016-05-10 14:10:21.800",14629146218,"state",0.75,"3",3,0.75,-1,66.6666666666667,"[[1,2,3,4],[5,6,7,8]]",1000,0,60,0,0.01,0,"stable",FALSE,TRUE,"2/3","1/3",100,"A",0,10,0.01,TRUE,"[.25,.5,.75,1,1.25,1.5,1.75]",39.3
"308",5,2,"5","2016-05-10 14:10:21.800",14629146218,"state",1,"4",4,1,-1,66.6666666666667,"[[1,2,3,4],[5,6,7,8]]",1000,0,60,0,0.01,0,"stable",FALSE,TRUE,"2/3","1/3",100,"A",0,10,0.01,TRUE,"[.25,.5,.75,1,1.25,1.5,1.75]",39.3
"309",5,2,"5","2016-05-10 14:10:23.100",14629146231,"state",0.25,"1",1,0.25,-1,33.3333333333333,"[[1,2,3,4],[5,6,7,8]]",1000,0,60,0,0.01,0,"stable",FALSE,TRUE,"2/3","1/3",100,"A",0,10,0.01,TRUE,"[.25,.5,.75,1,1.25,1.5,1.75]",40.6
"310",5,2,"5","2016-05-10 14:10:23.100",14629146231,"state",0.5,"2",2,0.5,-1,55.5555555555556,"[[1,2,3,4],[5,6,7,8]]",1000,0,60,0,0.01,0,"stable",FALSE,TRUE,"2/3","1/3",100,"A",0,10,0.01,TRUE,"[.25,.5,.75,1,1.25,1.5,1.75]",40.6
"311",5,2,"5","2016-05-10 14:10:23.100",14629146231,"state",0.75,"3",3,0.75,-1,66.6666666666667,"[[1,2,3,4],[5,6,7,8]]",1000,0,60,0,0.01,0,"stable",FALSE,TRUE,"2/3","1/3",100,"A",0,10,0.01,TRUE,"[.25,.5,.75,1,1.25,1.5,1.75]",40.6
"312",5,2,"5","2016-05-10 14:10:23.100",14629146231,"state",1,"4",4,1,-1,66.6666666666667,"[[1,2,3,4],[5,6,7,8]]",1000,0,60,0,0.01,0,"stable",FALSE,TRUE,"2/3","1/3",100,"A",0,10,0.01,TRUE,"[.25,.5,.75,1,1.25,1.5,1.75]",40.6
"313",5,2,"5","2016-05-10 14:10:24.300",14629146243,"state",0.25,"1",1,0.25,-1,33.3333333333333,"[[1,2,3,4],[5,6,7,8]]",1000,0,60,0,0.01,0,"stable",FALSE,TRUE,"2/3","1/3",100,"A",0,10,0.01,TRUE,"[.25,.5,.75,1,1.25,1.5,1.75]",41.8
"314",5,2,"5","2016-05-10 14:10:24.300",14629146243,"state",0.5,"2",2,0.5,-1,55.5555555555556,"[[1,2,3,4],[5,6,7,8]]",1000,0,60,0,0.01,0,"stable",FALSE,TRUE,"2/3","1/3",100,"A",0,10,0.01,TRUE,"[.25,.5,.75,1,1.25,1.5,1.75]",41.8
"315",5,2,"5","2016-05-10 14:10:24.300",14629146243,"state",0.75,"3",3,0.75,-1,66.6666666666667,"[[1,2,3,4],[5,6,7,8]]",1000,0,60,0,0.01,0,"stable",FALSE,TRUE,"2/3","1/3",100,"A",0,10,0.01,TRUE,"[.25,.5,.75,1,1.25,1.5,1.75]",41.8
"316",5,2,"5","2016-05-10 14:10:24.300",14629146243,"state",1,"4",4,1,-1,66.6666666666667,"[[1,2,3,4],[5,6,7,8]]",1000,0,60,0,0.01,0,"stable",FALSE,TRUE,"2/3","1/3",100,"A",0,10,0.01,TRUE,"[.25,.5,.75,1,1.25,1.5,1.75]",41.8
"317",5,2,"5","2016-05-10 14:10:25.500",14629146255,"state",0.25,"1",1,0.25,-1,33.3333333333333,"[[1,2,3,4],[5,6,7,8]]",1000,0,60,0,0.01,0,"stable",FALSE,TRUE,"2/3","1/3",100,"A",0,10,0.01,TRUE,"[.25,.5,.75,1,1.25,1.5,1.75]",43
"318",5,2,"5","2016-05-10 14:10:25.500",14629146255,"state",0.5,"2",2,0.5,-1,55.5555555555556,"[[1,2,3,4],[5,6,7,8]]",1000,0,60,0,0.01,0,"stable",FALSE,TRUE,"2/3","1/3",100,"A",0,10,0.01,TRUE,"[.25,.5,.75,1,1.25,1.5,1.75]",43
"319",5,2,"5","2016-05-10 14:10:25.500",14629146255,"state",0.75,"3",3,0.75,-1,66.6666666666667,"[[1,2,3,4],[5,6,7,8]]",1000,0,60,0,0.01,0,"stable",FALSE,TRUE,"2/3","1/3",100,"A",0,10,0.01,TRUE,"[.25,.5,.75,1,1.25,1.5,1.75]",43
"320",5,2,"5","2016-05-10 14:10:25.500",14629146255,"state",1,"4",4,1,-1,66.6666666666667,"[[1,2,3,4],[5,6,7,8]]",1000,0,60,0,0.01,0,"stable",FALSE,TRUE,"2/3","1/3",100,"A",0,10,0.01,TRUE,"[.25,.5,.75,1,1.25,1.5,1.75]",43
"321",5,2,"5","2016-05-10 14:10:26.700",14629146267,"state",0.25,"1",1,0.25,-1,33.3333333333333,"[[1,2,3,4],[5,6,7,8]]",1000,0,60,0,0.01,0,"stable",FALSE,TRUE,"2/3","1/3",100,"A",0,10,0.01,TRUE,"[.25,.5,.75,1,1.25,1.5,1.75]",44.2
"322",5,2,"5","2016-05-10 14:10:26.700",14629146267,"state",0.5,"2",2,0.5,-1,55.5555555555556,"[[1,2,3,4],[5,6,7,8]]",1000,0,60,0,0.01,0,"stable",FALSE,TRUE,"2/3","1/3",100,"A",0,10,0.01,TRUE,"[.25,.5,.75,1,1.25,1.5,1.75]",44.2
"323",5,2,"5","2016-05-10 14:10:26.700",14629146267,"state",0.75,"3",3,0.75,-1,66.6666666666667,"[[1,2,3,4],[5,6,7,8]]",1000,0,60,0,0.01,0,"stable",FALSE,TRUE,"2/3","1/3",100,"A",0,10,0.01,TRUE,"[.25,.5,.75,1,1.25,1.5,1.75]",44.2
"324",5,2,"5","2016-05-10 14:10:26.700",14629146267,"state",1,"4",4,1,-1,66.6666666666667,"[[1,2,3,4],[5,6,7,8]]",1000,0,60,0,0.01,0,"stable",FALSE,TRUE,"2/3","1/3",100,"A",0,10,0.01,TRUE,"[.25,.5,.75,1,1.25,1.5,1.75]",44.2
"325",5,2,"5","2016-05-10 14:10:28.000",14629146280,"state",0.25,"1",1,0.25,-1,33.3333333333333,"[[1,2,3,4],[5,6,7,8]]",1000,0,60,0,0.01,0,"stable",FALSE,TRUE,"2/3","1/3",100,"A",0,10,0.01,TRUE,"[.25,.5,.75,1,1.25,1.5,1.75]",45.5
"326",5,2,"5","2016-05-10 14:10:28.000",14629146280,"state",0.5,"2",2,0.5,-1,55.5555555555556,"[[1,2,3,4],[5,6,7,8]]",1000,0,60,0,0.01,0,"stable",FALSE,TRUE,"2/3","1/3",100,"A",0,10,0.01,TRUE,"[.25,.5,.75,1,1.25,1.5,1.75]",45.5
"327",5,2,"5","2016-05-10 14:10:28.000",14629146280,"state",0.75,"3",3,0.75,-1,66.6666666666667,"[[1,2,3,4],[5,6,7,8]]",1000,0,60,0,0.01,0,"stable",FALSE,TRUE,"2/3","1/3",100,"A",0,10,0.01,TRUE,"[.25,.5,.75,1,1.25,1.5,1.75]",45.5
"328",5,2,"5","2016-05-10 14:10:28.000",14629146280,"state",1,"4",4,1,-1,66.6666666666667,"[[1,2,3,4],[5,6,7,8]]",1000,0,60,0,0.01,0,"stable",FALSE,TRUE,"2/3","1/3",100,"A",0,10,0.01,TRUE,"[.25,.5,.75,1,1.25,1.5,1.75]",45.5
"329",5,2,"5","2016-05-10 14:10:29.200",14629146292,"state",0.25,"1",1,0.25,-1,33.3333333333333,"[[1,2,3,4],[5,6,7,8]]",1000,0,60,0,0.01,0,"stable",FALSE,TRUE,"2/3","1/3",100,"A",0,10,0.01,TRUE,"[.25,.5,.75,1,1.25,1.5,1.75]",46.7
"330",5,2,"5","2016-05-10 14:10:29.200",14629146292,"state",0.5,"2",2,0.5,-1,55.5555555555556,"[[1,2,3,4],[5,6,7,8]]",1000,0,60,0,0.01,0,"stable",FALSE,TRUE,"2/3","1/3",100,"A",0,10,0.01,TRUE,"[.25,.5,.75,1,1.25,1.5,1.75]",46.7
"331",5,2,"5","2016-05-10 14:10:29.200",14629146292,"state",0.75,"3",3,0.75,-1,66.6666666666667,"[[1,2,3,4],[5,6,7,8]]",1000,0,60,0,0.01,0,"stable",FALSE,TRUE,"2/3","1/3",100,"A",0,10,0.01,TRUE,"[.25,.5,.75,1,1.25,1.5,1.75]",46.7
"332",5,2,"5","2016-05-10 14:10:29.200",14629146292,"state",1,"4",4,1,-1,66.6666666666667,"[[1,2,3,4],[5,6,7,8]]",1000,0,60,0,0.01,0,"stable",FALSE,TRUE,"2/3","1/3",100,"A",0,10,0.01,TRUE,"[.25,.5,.75,1,1.25,1.5,1.75]",46.7
"333",5,2,"5","2016-05-10 14:10:30.400",14629146304,"state",0.25,"1",1,0.25,-1,33.3333333333333,"[[1,2,3,4],[5,6,7,8]]",1000,0,60,0,0.01,0,"stable",FALSE,TRUE,"2/3","1/3",100,"A",0,10,0.01,TRUE,"[.25,.5,.75,1,1.25,1.5,1.75]",47.9
"334",5,2,"5","2016-05-10 14:10:30.400",14629146304,"state",0.5,"2",2,0.5,-1,55.5555555555556,"[[1,2,3,4],[5,6,7,8]]",1000,0,60,0,0.01,0,"stable",FALSE,TRUE,"2/3","1/3",100,"A",0,10,0.01,TRUE,"[.25,.5,.75,1,1.25,1.5,1.75]",47.9
"335",5,2,"5","2016-05-10 14:10:30.400",14629146304,"state",0.75,"3",3,0.75,-1,66.6666666666667,"[[1,2,3,4],[5,6,7,8]]",1000,0,60,0,0.01,0,"stable",FALSE,TRUE,"2/3","1/3",100,"A",0,10,0.01,TRUE,"[.25,.5,.75,1,1.25,1.5,1.75]",47.9
"336",5,2,"5","2016-05-10 14:10:30.400",14629146304,"state",1,"4",4,1,-1,66.6666666666667,"[[1,2,3,4],[5,6,7,8]]",1000,0,60,0,0.01,0,"stable",FALSE,TRUE,"2/3","1/3",100,"A",0,10,0.01,TRUE,"[.25,.5,.75,1,1.25,1.5,1.75]",47.9
"337",5,2,"5","2016-05-10 14:10:31.700",14629146317,"state",0.25,"1",1,0.25,-1,33.3333333333333,"[[1,2,3,4],[5,6,7,8]]",1000,0,60,0,0.01,0,"stable",FALSE,TRUE,"2/3","1/3",100,"A",0,10,0.01,TRUE,"[.25,.5,.75,1,1.25,1.5,1.75]",49.2
"338",5,2,"5","2016-05-10 14:10:31.700",14629146317,"state",0.5,"2",2,0.5,-1,55.5555555555556,"[[1,2,3,4],[5,6,7,8]]",1000,0,60,0,0.01,0,"stable",FALSE,TRUE,"2/3","1/3",100,"A",0,10,0.01,TRUE,"[.25,.5,.75,1,1.25,1.5,1.75]",49.2
"339",5,2,"5","2016-05-10 14:10:31.700",14629146317,"state",0.75,"3",3,0.75,-1,66.6666666666667,"[[1,2,3,4],[5,6,7,8]]",1000,0,60,0,0.01,0,"stable",FALSE,TRUE,"2/3","1/3",100,"A",0,10,0.01,TRUE,"[.25,.5,.75,1,1.25,1.5,1.75]",49.2
"340",5,2,"5","2016-05-10 14:10:31.700",14629146317,"state",1,"4",4,1,-1,66.6666666666667,"[[1,2,3,4],[5,6,7,8]]",1000,0,60,0,0.01,0,"stable",FALSE,TRUE,"2/3","1/3",100,"A",0,10,0.01,TRUE,"[.25,.5,.75,1,1.25,1.5,1.75]",49.2
"341",5,2,"5","2016-05-10 14:10:32.900",14629146329,"state",0.25,"1",1,0.25,-1,33.3333333333333,"[[1,2,3,4],[5,6,7,8]]",1000,0,60,0,0.01,0,"stable",FALSE,TRUE,"2/3","1/3",100,"A",0,10,0.01,TRUE,"[.25,.5,.75,1,1.25,1.5,1.75]",50.4
"342",5,2,"5","2016-05-10 14:10:32.900",14629146329,"state",0.5,"2",2,0.5,-1,55.5555555555556,"[[1,2,3,4],[5,6,7,8]]",1000,0,60,0,0.01,0,"stable",FALSE,TRUE,"2/3","1/3",100,"A",0,10,0.01,TRUE,"[.25,.5,.75,1,1.25,1.5,1.75]",50.4
"343",5,2,"5","2016-05-10 14:10:32.900",14629146329,"state",0.75,"3",3,0.75,-1,66.6666666666667,"[[1,2,3,4],[5,6,7,8]]",1000,0,60,0,0.01,0,"stable",FALSE,TRUE,"2/3","1/3",100,"A",0,10,0.01,TRUE,"[.25,.5,.75,1,1.25,1.5,1.75]",50.4
"344",5,2,"5","2016-05-10 14:10:32.900",14629146329,"state",1,"4",4,1,-1,66.6666666666667,"[[1,2,3,4],[5,6,7,8]]",1000,0,60,0,0.01,0,"stable",FALSE,TRUE,"2/3","1/3",100,"A",0,10,0.01,TRUE,"[.25,.5,.75,1,1.25,1.5,1.75]",50.4
"345",5,2,"5","2016-05-10 14:10:34.100",14629146341,"state",0.25,"1",1,0.25,-1,33.3333333333333,"[[1,2,3,4],[5,6,7,8]]",1000,0,60,0,0.01,0,"stable",FALSE,TRUE,"2/3","1/3",100,"A",0,10,0.01,TRUE,"[.25,.5,.75,1,1.25,1.5,1.75]",51.6
"346",5,2,"5","2016-05-10 14:10:34.100",14629146341,"state",0.5,"2",2,0.5,-1,55.5555555555556,"[[1,2,3,4],[5,6,7,8]]",1000,0,60,0,0.01,0,"stable",FALSE,TRUE,"2/3","1/3",100,"A",0,10,0.01,TRUE,"[.25,.5,.75,1,1.25,1.5,1.75]",51.6
"347",5,2,"5","2016-05-10 14:10:34.100",14629146341,"state",0.75,"3",3,0.75,-1,66.6666666666667,"[[1,2,3,4],[5,6,7,8]]",1000,0,60,0,0.01,0,"stable",FALSE,TRUE,"2/3","1/3",100,"A",0,10,0.01,TRUE,"[.25,.5,.75,1,1.25,1.5,1.75]",51.6
"348",5,2,"5","2016-05-10 14:10:34.100",14629146341,"state",1,"4",4,1,-1,66.6666666666667,"[[1,2,3,4],[5,6,7,8]]",1000,0,60,0,0.01,0,"stable",FALSE,TRUE,"2/3","1/3",100,"A",0,10,0.01,TRUE,"[.25,.5,.75,1,1.25,1.5,1.75]",51.6
"349",5,2,"5","2016-05-10 14:10:35.300",14629146353,"state",0.25,"1",1,0.25,-1,33.3333333333333,"[[1,2,3,4],[5,6,7,8]]",1000,0,60,0,0.01,0,"stable",FALSE,TRUE,"2/3","1/3",100,"A",0,10,0.01,TRUE,"[.25,.5,.75,1,1.25,1.5,1.75]",52.8
"350",5,2,"5","2016-05-10 14:10:35.300",14629146353,"state",0.5,"2",2,0.5,-1,55.5555555555556,"[[1,2,3,4],[5,6,7,8]]",1000,0,60,0,0.01,0,"stable",FALSE,TRUE,"2/3","1/3",100,"A",0,10,0.01,TRUE,"[.25,.5,.75,1,1.25,1.5,1.75]",52.8
"351",5,2,"5","2016-05-10 14:10:35.300",14629146353,"state",0.75,"3",3,0.75,-1,66.6666666666667,"[[1,2,3,4],[5,6,7,8]]",1000,0,60,0,0.01,0,"stable",FALSE,TRUE,"2/3","1/3",100,"A",0,10,0.01,TRUE,"[.25,.5,.75,1,1.25,1.5,1.75]",52.8
"352",5,2,"5","2016-05-10 14:10:35.300",14629146353,"state",1,"4",4,1,-1,66.6666666666667,"[[1,2,3,4],[5,6,7,8]]",1000,0,60,0,0.01,0,"stable",FALSE,TRUE,"2/3","1/3",100,"A",0,10,0.01,TRUE,"[.25,.5,.75,1,1.25,1.5,1.75]",52.8
"353",5,2,"5","2016-05-10 14:10:36.600",14629146366,"state",0.25,"1",1,0.25,-1,33.3333333333333,"[[1,2,3,4],[5,6,7,8]]",1000,0,60,0,0.01,0,"stable",FALSE,TRUE,"2/3","1/3",100,"A",0,10,0.01,TRUE,"[.25,.5,.75,1,1.25,1.5,1.75]",54.1
"354",5,2,"5","2016-05-10 14:10:36.600",14629146366,"state",0.5,"2",2,0.5,-1,55.5555555555556,"[[1,2,3,4],[5,6,7,8]]",1000,0,60,0,0.01,0,"stable",FALSE,TRUE,"2/3","1/3",100,"A",0,10,0.01,TRUE,"[.25,.5,.75,1,1.25,1.5,1.75]",54.1
"355",5,2,"5","2016-05-10 14:10:36.600",14629146366,"state",0.75,"3",3,0.75,-1,66.6666666666667,"[[1,2,3,4],[5,6,7,8]]",1000,0,60,0,0.01,0,"stable",FALSE,TRUE,"2/3","1/3",100,"A",0,10,0.01,TRUE,"[.25,.5,.75,1,1.25,1.5,1.75]",54.1
"356",5,2,"5","2016-05-10 14:10:36.600",14629146366,"state",1,"4",4,1,-1,66.6666666666667,"[[1,2,3,4],[5,6,7,8]]",1000,0,60,0,0.01,0,"stable",FALSE,TRUE,"2/3","1/3",100,"A",0,10,0.01,TRUE,"[.25,.5,.75,1,1.25,1.5,1.75]",54.1
"357",5,2,"5","2016-05-10 14:10:37.800",14629146378,"state",0.25,"1",1,0.25,-1,33.3333333333333,"[[1,2,3,4],[5,6,7,8]]",1000,0,60,0,0.01,0,"stable",FALSE,TRUE,"2/3","1/3",100,"A",0,10,0.01,TRUE,"[.25,.5,.75,1,1.25,1.5,1.75]",55.3
"358",5,2,"5","2016-05-10 14:10:37.800",14629146378,"state",0.5,"2",2,0.5,-1,55.5555555555556,"[[1,2,3,4],[5,6,7,8]]",1000,0,60,0,0.01,0,"stable",FALSE,TRUE,"2/3","1/3",100,"A",0,10,0.01,TRUE,"[.25,.5,.75,1,1.25,1.5,1.75]",55.3
"359",5,2,"5","2016-05-10 14:10:37.800",14629146378,"state",0.75,"3",3,0.75,-1,66.6666666666667,"[[1,2,3,4],[5,6,7,8]]",1000,0,60,0,0.01,0,"stable",FALSE,TRUE,"2/3","1/3",100,"A",0,10,0.01,TRUE,"[.25,.5,.75,1,1.25,1.5,1.75]",55.3
"360",5,2,"5","2016-05-10 14:10:37.800",14629146378,"state",1,"4",4,1,-1,66.6666666666667,"[[1,2,3,4],[5,6,7,8]]",1000,0,60,0,0.01,0,"stable",FALSE,TRUE,"2/3","1/3",100,"A",0,10,0.01,TRUE,"[.25,.5,.75,1,1.25,1.5,1.75]",55.3
"361",5,2,"5","2016-05-10 14:10:39.000",14629146390,"state",1.56,"1",1,0.27,-1,36,"[[1,2,3,4],[5,6,7,8]]",1000,0,60,0,0.01,0,"stable",FALSE,TRUE,"2/3","1/3",100,"A",0,10,0.01,TRUE,"[.25,.5,.75,1,1.25,1.5,1.75]",56.5
"362",5,2,"5","2016-05-10 14:10:39.000",14629146390,"state",0.5,"2",2,0.5,-1,55.5555555555556,"[[1,2,3,4],[5,6,7,8]]",1000,0,60,0,0.01,0,"stable",FALSE,TRUE,"2/3","1/3",100,"A",0,10,0.01,TRUE,"[.25,.5,.75,1,1.25,1.5,1.75]",56.5
"363",5,2,"5","2016-05-10 14:10:39.000",14629146390,"state",0.75,"3",3,0.75,-1,66.6666666666667,"[[1,2,3,4],[5,6,7,8]]",1000,0,60,0,0.01,0,"stable",FALSE,TRUE,"2/3","1/3",100,"A",0,10,0.01,TRUE,"[.25,.5,.75,1,1.25,1.5,1.75]",56.5
"364",5,2,"5","2016-05-10 14:10:39.000",14629146390,"state",1,"4",4,1,-1,66.6666666666667,"[[1,2,3,4],[5,6,7,8]]",1000,0,60,0,0.01,0,"stable",FALSE,TRUE,"2/3","1/3",100,"A",0,10,0.01,TRUE,"[.25,.5,.75,1,1.25,1.5,1.75]",56.5
"365",5,2,"5","2016-05-10 14:10:40.300",14629146403,"state",6.03,"1",1,0.33,-1,44,"[[1,2,3,4],[5,6,7,8]]",1000,0,60,0,0.01,0,"stable",FALSE,TRUE,"2/3","1/3",100,"A",0,10,0.01,TRUE,"[.25,.5,.75,1,1.25,1.5,1.75]",57.8
"366",5,2,"5","2016-05-10 14:10:40.300",14629146403,"state",0.5,"2",2,0.5,-1,55.5555555555556,"[[1,2,3,4],[5,6,7,8]]",1000,0,60,0,0.01,0,"stable",FALSE,TRUE,"2/3","1/3",100,"A",0,10,0.01,TRUE,"[.25,.5,.75,1,1.25,1.5,1.75]",57.8
"367",5,2,"5","2016-05-10 14:10:40.300",14629146403,"state",5.86,"3",3,0.8,-1,70.2222222222222,"[[1,2,3,4],[5,6,7,8]]",1000,0,60,0,0.01,0,"stable",FALSE,TRUE,"2/3","1/3",100,"A",0,10,0.01,TRUE,"[.25,.5,.75,1,1.25,1.5,1.75]",57.8
"368",5,2,"5","2016-05-10 14:10:40.300",14629146403,"state",1,"4",4,1,-1,66.6666666666667,"[[1,2,3,4],[5,6,7,8]]",1000,0,60,0,0.01,0,"stable",FALSE,TRUE,"2/3","1/3",100,"A",0,10,0.01,TRUE,"[.25,.5,.75,1,1.25,1.5,1.75]",57.8
"369",5,2,"5","2016-05-10 14:10:41.500",14629146415,"state",1.44,"1",1,0.39,-1,52,"[[1,2,3,4],[5,6,7,8]]",1000,0,60,0,0.01,0,"stable",FALSE,TRUE,"2/3","1/3",100,"A",0,10,0.01,TRUE,"[.25,.5,.75,1,1.25,1.5,1.75]",59
"370",5,2,"5","2016-05-10 14:10:41.500",14629146415,"state",0.89,"2",2,0.55,-1,60,"[[1,2,3,4],[5,6,7,8]]",1000,0,60,0,0.01,0,"stable",FALSE,TRUE,"2/3","1/3",100,"A",0,10,0.01,TRUE,"[.25,.5,.75,1,1.25,1.5,1.75]",59
"371",5,2,"5","2016-05-10 14:10:41.500",14629146415,"state",4.67,"3",3,0.86,-1,75.5555555555556,"[[1,2,3,4],[5,6,7,8]]",1000,0,60,0,0.01,0,"stable",FALSE,TRUE,"2/3","1/3",100,"A",0,10,0.01,TRUE,"[.25,.5,.75,1,1.25,1.5,1.75]",59
"372",5,2,"5","2016-05-10 14:10:41.500",14629146415,"state",5.12,"4",4,1.02,-1,67.3333333333333,"[[1,2,3,4],[5,6,7,8]]",1000,0,60,0,0.01,0,"stable",FALSE,TRUE,"2/3","1/3",100,"A",0,10,0.01,TRUE,"[.25,.5,.75,1,1.25,1.5,1.75]",59
"373",5,2,"5","2016-05-10 14:10:42.700",14629146427,"state",3.53,"1",1,0.45,-1,60,"[[1,2,3,4],[5,6,7,8]]",1000,0,60,0,0.01,0,"stable",FALSE,TRUE,"2/3","1/3",100,"A",0,10,0.01,TRUE,"[.25,.5,.75,1,1.25,1.5,1.75]",60.2
"374",5,2,"5","2016-05-10 14:10:42.700",14629146427,"state",3.81,"2",2,0.61,-1,66.6666666666667,"[[1,2,3,4],[5,6,7,8]]",1000,0,60,0,0.01,0,"stable",FALSE,TRUE,"2/3","1/3",100,"A",0,10,0.01,TRUE,"[.25,.5,.75,1,1.25,1.5,1.75]",60.2
"375",5,2,"5","2016-05-10 14:10:42.700",14629146427,"state",1.21,"3",3,0.92,-1,80.8888888888889,"[[1,2,3,4],[5,6,7,8]]",1000,0,60,0,0.01,0,"stable",FALSE,TRUE,"2/3","1/3",100,"A",0,10,0.01,TRUE,"[.25,.5,.75,1,1.25,1.5,1.75]",60.2
"376",5,2,"5","2016-05-10 14:10:42.700",14629146427,"state",6.09,"4",4,1.08,-1,71.3333333333333,"[[1,2,3,4],[5,6,7,8]]",1000,0,60,0,0.01,0,"stable",FALSE,TRUE,"2/3","1/3",100,"A",0,10,0.01,TRUE,"[.25,.5,.75,1,1.25,1.5,1.75]",60.2
"377",6,2,"5","2016-05-10 14:10:54.700",14629146547,"state",0.55,"1",1,0.28,-1,37.3333333333333,"[[1,2,3,4],[5,6,7,8]]",1000,0,60,0,0.05,0,"stable",FALSE,TRUE,"2/3","1/3",100,"A",0,10,0.01,TRUE,"[.25,.5,.75,1,1.25,1.5,1.75]",0
"378",6,2,"5","2016-05-10 14:10:54.700",14629146547,"state",2.54,"2",2,0.55,-1,55.5555555555556,"[[1,2,3,4],[5,6,7,8]]",1000,0,60,0,0.05,0,"stable",FALSE,TRUE,"2/3","1/3",100,"A",0,10,0.01,TRUE,"[.25,.5,.75,1,1.25,1.5,1.75]",0
"379",6,2,"5","2016-05-10 14:10:54.700",14629146547,"state",9.18,"3",3,0.9,-1,75.5555555555556,"[[1,2,3,4],[5,6,7,8]]",1000,0,60,0,0.05,0,"stable",FALSE,TRUE,"2/3","1/3",100,"A",0,10,0.01,TRUE,"[.25,.5,.75,1,1.25,1.5,1.75]",0
"380",6,2,"5","2016-05-10 14:10:54.700",14629146547,"state",3.19,"4",4,1.1,-1,70,"[[1,2,3,4],[5,6,7,8]]",1000,0,60,0,0.05,0,"stable",FALSE,TRUE,"2/3","1/3",100,"A",0,10,0.01,TRUE,"[.25,.5,.75,1,1.25,1.5,1.75]",0
"381",6,2,"5","2016-05-10 14:10:55.900",14629146559,"state",2.6,"1",1,0.58,-1,77.3333333333334,"[[1,2,3,4],[5,6,7,8]]",1000,0,60,0,0.05,0,"stable",FALSE,TRUE,"2/3","1/3",100,"A",0,10,0.01,TRUE,"[.25,.5,.75,1,1.25,1.5,1.75]",1.2
"382",6,2,"5","2016-05-10 14:10:55.900",14629146559,"state",2.81,"2",2,0.85,-1,88.8888888888889,"[[1,2,3,4],[5,6,7,8]]",1000,0,60,0,0.05,0,"stable",FALSE,TRUE,"2/3","1/3",100,"A",0,10,0.01,TRUE,"[.25,.5,.75,1,1.25,1.5,1.75]",1.2
"383",6,2,"5","2016-05-10 14:10:55.900",14629146559,"state",2.05,"3",3,1.2,-1,102.222222222222,"[[1,2,3,4],[5,6,7,8]]",1000,0,60,0,0.05,0,"stable",FALSE,TRUE,"2/3","1/3",100,"A",0,10,0.01,TRUE,"[.25,.5,.75,1,1.25,1.5,1.75]",1.2
"384",6,2,"5","2016-05-10 14:10:55.900",14629146559,"state",0.49,"4",4,1.3,-1,90,"[[1,2,3,4],[5,6,7,8]]",1000,0,60,0,0.05,0,"stable",FALSE,TRUE,"2/3","1/3",100,"A",0,10,0.01,TRUE,"[.25,.5,.75,1,1.25,1.5,1.75]",1.2
"385",6,2,"5","2016-05-10 14:10:57.100",14629146571,"state",0.28,"1",1,0.48,-1,64,"[[1,2,3,4],[5,6,7,8]]",1000,0,60,0,0.05,0,"stable",FALSE,TRUE,"2/3","1/3",100,"A",0,10,0.01,TRUE,"[.25,.5,.75,1,1.25,1.5,1.75]",2.4
"386",6,2,"5","2016-05-10 14:10:57.100",14629146571,"state",9.39,"2",2,1.15,-1,97.7777777777778,"[[1,2,3,4],[5,6,7,8]]",1000,0,60,0,0.05,0,"stable",FALSE,TRUE,"2/3","1/3",100,"A",0,10,0.01,TRUE,"[.25,.5,.75,1,1.25,1.5,1.75]",2.4
"387",6,2,"5","2016-05-10 14:10:57.100",14629146571,"state",2.05,"3",3,1.5,-1,96.6666666666667,"[[1,2,3,4],[5,6,7,8]]",1000,0,60,0,0.05,0,"stable",FALSE,TRUE,"2/3","1/3",100,"A",0,10,0.01,TRUE,"[.25,.5,.75,1,1.25,1.5,1.75]",2.4
"388",6,2,"5","2016-05-10 14:10:57.100",14629146571,"state",0.83,"4",4,1,-1,116.666666666667,"[[1,2,3,4],[5,6,7,8]]",1000,0,60,0,0.05,0,"stable",FALSE,TRUE,"2/3","1/3",100,"A",0,10,0.01,TRUE,"[.25,.5,.75,1,1.25,1.5,1.75]",2.4
"389",6,2,"5","2016-05-10 14:10:58.400",14629146584,"state",5.43,"1",1,0.56,-1,74.6666666666667,"[[1,2,3,4],[5,6,7,8]]",1000,0,60,0,0.05,0,"stable",FALSE,TRUE,"2/3","1/3",100,"A",0,10,0.01,TRUE,"[.25,.5,.75,1,1.25,1.5,1.75]",3.7
"390",6,2,"5","2016-05-10 14:10:58.400",14629146584,"state",4.71,"2",2,1.45,-1,124.444444444445,"[[1,2,3,4],[5,6,7,8]]",1000,0,60,0,0.05,0,"stable",FALSE,TRUE,"2/3","1/3",100,"A",0,10,0.01,TRUE,"[.25,.5,.75,1,1.25,1.5,1.75]",3.7
"391",6,2,"5","2016-05-10 14:10:58.400",14629146584,"state",3.06,"3",3,1.8,-1,116.666666666667,"[[1,2,3,4],[5,6,7,8]]",1000,0,60,0,0.05,0,"stable",FALSE,TRUE,"2/3","1/3",100,"A",0,10,0.01,TRUE,"[.25,.5,.75,1,1.25,1.5,1.75]",3.7
"392",6,2,"5","2016-05-10 14:10:58.400",14629146584,"state",1.16,"4",4,1.16,-1,128.888888888889,"[[1,2,3,4],[5,6,7,8]]",1000,0,60,0,0.05,0,"stable",FALSE,TRUE,"2/3","1/3",100,"A",0,10,0.01,TRUE,"[.25,.5,.75,1,1.25,1.5,1.75]",3.7
"393",6,2,"5","2016-05-10 14:10:59.600",14629146596,"state",4.23,"1",1,0.86,-1,114.666666666667,"[[1,2,3,4],[5,6,7,8]]",1000,0,60,0,0.05,0,"stable",FALSE,TRUE,"2/3","1/3",100,"A",0,10,0.01,TRUE,"[.25,.5,.75,1,1.25,1.5,1.75]",4.9
"394",6,2,"5","2016-05-10 14:10:59.600",14629146596,"state",3.28,"2",2,1.75,-1,151.111111111111,"[[1,2,3,4],[5,6,7,8]]",1000,0,60,0,0.05,0,"stable",FALSE,TRUE,"2/3","1/3",100,"A",0,10,0.01,TRUE,"[.25,.5,.75,1,1.25,1.5,1.75]",4.9
"395",6,2,"5","2016-05-10 14:10:59.600",14629146596,"state",4.57,"3",3,2.1,-1,136.666666666667,"[[1,2,3,4],[5,6,7,8]]",1000,0,60,0,0.05,0,"stable",FALSE,TRUE,"2/3","1/3",100,"A",0,10,0.01,TRUE,"[.25,.5,.75,1,1.25,1.5,1.75]",4.9
"396",6,2,"5","2016-05-10 14:10:59.600",14629146596,"state",0.38,"4",4,1.11,-1,128.888888888889,"[[1,2,3,4],[5,6,7,8]]",1000,0,60,0,0.05,0,"stable",FALSE,TRUE,"2/3","1/3",100,"A",0,10,0.01,TRUE,"[.25,.5,.75,1,1.25,1.5,1.75]",4.9
"397",6,2,"5","2016-05-10 14:11:00.800",14629146608,"state",5.07,"1",1,1.16,-1,128.888888888889,"[[1,2,3,4],[5,6,7,8]]",1000,0,60,0,0.05,0,"stable",FALSE,TRUE,"2/3","1/3",100,"A",0,10,0.01,TRUE,"[.25,.5,.75,1,1.25,1.5,1.75]",6.1
"398",6,2,"5","2016-05-10 14:11:00.800",14629146608,"state",7.02,"2",2,2.05,-1,177.777777777778,"[[1,2,3,4],[5,6,7,8]]",1000,0,60,0,0.05,0,"stable",FALSE,TRUE,"2/3","1/3",100,"A",0,10,0.01,TRUE,"[.25,.5,.75,1,1.25,1.5,1.75]",6.1
"399",6,2,"5","2016-05-10 14:11:00.800",14629146608,"state",3.51,"3",3,2.4,-1,156.666666666667,"[[1,2,3,4],[5,6,7,8]]",1000,0,60,0,0.05,0,"stable",FALSE,TRUE,"2/3","1/3",100,"A",0,10,0.01,TRUE,"[.25,.5,.75,1,1.25,1.5,1.75]",6.1
"400",6,2,"5","2016-05-10 14:11:00.800",14629146608,"state",2.13,"4",4,1.21,-1,154.666666666667,"[[1,2,3,4],[5,6,7,8]]",1000,0,60,0,0.05,0,"stable",FALSE,TRUE,"2/3","1/3",100,"A",0,10,0.01,TRUE,"[.25,.5,.75,1,1.25,1.5,1.75]",6.1
"401",6,2,"5","2016-05-10 14:11:02.100",14629146621,"state",2.92,"1",1,1.46,-1,162.222222222222,"[[1,2,3,4],[5,6,7,8]]",1000,0,60,0,0.05,0,"stable",FALSE,TRUE,"2/3","1/3",100,"A",0,10,0.01,TRUE,"[.25,.5,.75,1,1.25,1.5,1.75]",7.4
"402",6,2,"5","2016-05-10 14:11:02.100",14629146621,"state",3.89,"2",2,2.35,-1,204.444444444444,"[[1,2,3,4],[5,6,7,8]]",1000,0,60,0,0.05,0,"stable",FALSE,TRUE,"2/3","1/3",100,"A",0,10,0.01,TRUE,"[.25,.5,.75,1,1.25,1.5,1.75]",7.4
"403",6,2,"5","2016-05-10 14:11:02.100",14629146621,"state",2.11,"3",3,2.4,-1,163.333333333333,"[[1,2,3,4],[5,6,7,8]]",1000,0,60,0,0.05,0,"stable",FALSE,TRUE,"2/3","1/3",100,"A",0,10,0.01,TRUE,"[.25,.5,.75,1,1.25,1.5,1.75]",7.4
"404",6,2,"5","2016-05-10 14:11:02.100",14629146621,"state",2.13,"4",4,1.51,-1,194.666666666667,"[[1,2,3,4],[5,6,7,8]]",1000,0,60,0,0.05,0,"stable",FALSE,TRUE,"2/3","1/3",100,"A",0,10,0.01,TRUE,"[.25,.5,.75,1,1.25,1.5,1.75]",7.4
"405",6,2,"5","2016-05-10 14:11:03.300",14629146633,"state",8.08,"1",1,1.76,-1,195.555555555556,"[[1,2,3,4],[5,6,7,8]]",1000,0,60,0,0.05,0,"stable",FALSE,TRUE,"2/3","1/3",100,"A",0,10,0.01,TRUE,"[.25,.5,.75,1,1.25,1.5,1.75]",8.6
"406",6,2,"5","2016-05-10 14:11:03.300",14629146633,"state",3.89,"2",2,2.65,-1,173.333333333333,"[[1,2,3,4],[5,6,7,8]]",1000,0,60,0,0.05,0,"stable",FALSE,TRUE,"2/3","1/3",100,"A",0,10,0.01,TRUE,"[.25,.5,.75,1,1.25,1.5,1.75]",8.6
"407",6,2,"5","2016-05-10 14:11:03.300",14629146633,"state",8.29,"3",3,2.5,-1,217.777777777778,"[[1,2,3,4],[5,6,7,8]]",1000,0,60,0,0.05,0,"stable",FALSE,TRUE,"2/3","1/3",100,"A",0,10,0.01,TRUE,"[.25,.5,.75,1,1.25,1.5,1.75]",8.6
"408",6,2,"5","2016-05-10 14:11:03.300",14629146633,"state",4.12,"4",4,1.64,-1,212,"[[1,2,3,4],[5,6,7,8]]",1000,0,60,0,0.05,0,"stable",FALSE,TRUE,"2/3","1/3",100,"A",0,10,0.01,TRUE,"[.25,.5,.75,1,1.25,1.5,1.75]",8.6
"409",6,2,"5","2016-05-10 14:11:04.500",14629146645,"state",8.58,"1",1,2.06,-1,228.888888888889,"[[1,2,3,4],[5,6,7,8]]",1000,0,60,0,0.05,0,"stable",FALSE,TRUE,"2/3","1/3",100,"A",0,10,0.01,TRUE,"[.25,.5,.75,1,1.25,1.5,1.75]",9.8
"410",6,2,"5","2016-05-10 14:11:04.500",14629146645,"state",8.33,"2",2,2.95,-1,193.333333333333,"[[1,2,3,4],[5,6,7,8]]",1000,0,60,0,0.05,0,"stable",FALSE,TRUE,"2/3","1/3",100,"A",0,10,0.01,TRUE,"[.25,.5,.75,1,1.25,1.5,1.75]",9.8
"411",6,2,"5","2016-05-10 14:11:04.500",14629146645,"state",2.2,"3",3,2.5,-1,226.666666666667,"[[1,2,3,4],[5,6,7,8]]",1000,0,60,0,0.05,0,"stable",FALSE,TRUE,"2/3","1/3",100,"A",0,10,0.01,TRUE,"[.25,.5,.75,1,1.25,1.5,1.75]",9.8
"412",6,2,"5","2016-05-10 14:11:04.500",14629146645,"state",3.17,"4",4,1.94,-1,252,"[[1,2,3,4],[5,6,7,8]]",1000,0,60,0,0.05,0,"stable",FALSE,TRUE,"2/3","1/3",100,"A",0,10,0.01,TRUE,"[.25,.5,.75,1,1.25,1.5,1.75]",9.8
"413",6,2,"5","2016-05-10 14:11:05.700",14629146657,"state",4.54,"1",1,2.36,-1,262.222222222222,"[[1,2,3,4],[5,6,7,8]]",1000,0,60,0,0.05,0,"stable",FALSE,TRUE,"2/3","1/3",100,"A",0,10,0.01,TRUE,"[.25,.5,.75,1,1.25,1.5,1.75]",11
"414",6,2,"5","2016-05-10 14:11:05.700",14629146657,"state",6.09,"2",2,3.25,-1,213.333333333333,"[[1,2,3,4],[5,6,7,8]]",1000,0,60,0,0.05,0,"stable",FALSE,TRUE,"2/3","1/3",100,"A",0,10,0.01,TRUE,"[.25,.5,.75,1,1.25,1.5,1.75]",11
"415",6,2,"5","2016-05-10 14:11:05.700",14629146657,"state",2.47,"3",3,2.47,-1,219.555555555556,"[[1,2,3,4],[5,6,7,8]]",1000,0,60,0,0.05,0,"stable",FALSE,TRUE,"2/3","1/3",100,"A",0,10,0.01,TRUE,"[.25,.5,.75,1,1.25,1.5,1.75]",11
"416",6,2,"5","2016-05-10 14:11:05.700",14629146657,"state",3.17,"4",4,2.24,-1,292,"[[1,2,3,4],[5,6,7,8]]",1000,0,60,0,0.05,0,"stable",FALSE,TRUE,"2/3","1/3",100,"A",0,10,0.01,TRUE,"[.25,.5,.75,1,1.25,1.5,1.75]",11
"417",6,2,"5","2016-05-10 14:11:07.000",14629146670,"state",0.08,"1",1,2.36,-1,314.666666666667,"[[1,2,3,4],[5,6,7,8]]",1000,0,60,0,0.05,0,"stable",FALSE,TRUE,"2/3","1/3",100,"A",0,10,0.01,TRUE,"[.25,.5,.75,1,1.25,1.5,1.75]",12.3
"418",6,2,"5","2016-05-10 14:11:07.000",14629146670,"state",8.27,"2",2,3.55,-1,233.333333333333,"[[1,2,3,4],[5,6,7,8]]",1000,0,60,0,0.05,0,"stable",FALSE,TRUE,"2/3","1/3",100,"A",0,10,0.01,TRUE,"[.25,.5,.75,1,1.25,1.5,1.75]",12.3
"419",6,2,"5","2016-05-10 14:11:07.000",14629146670,"state",2.54,"3",3,2.54,-1,225.777777777778,"[[1,2,3,4],[5,6,7,8]]",1000,0,60,0,0.05,0,"stable",FALSE,TRUE,"2/3","1/3",100,"A",0,10,0.01,TRUE,"[.25,.5,.75,1,1.25,1.5,1.75]",12.3
"420",6,2,"5","2016-05-10 14:11:07.000",14629146670,"state",3.17,"4",4,2.54,-1,276.666666666667,"[[1,2,3,4],[5,6,7,8]]",1000,0,60,0,0.05,0,"stable",FALSE,TRUE,"2/3","1/3",100,"A",0,10,0.01,TRUE,"[.25,.5,.75,1,1.25,1.5,1.75]",12.3
"421",6,2,"5","2016-05-10 14:11:08.200",14629146682,"state",4.55,"1",1,2.66,-1,295.555555555555,"[[1,2,3,4],[5,6,7,8]]",1000,0,60,0,0.05,0,"stable",FALSE,TRUE,"2/3","1/3",100,"A",0,10,0.01,TRUE,"[.25,.5,.75,1,1.25,1.5,1.75]",13.5
"422",6,2,"5","2016-05-10 14:11:08.200",14629146682,"state",5.22,"2",2,3.65,-1,240,"[[1,2,3,4],[5,6,7,8]]",1000,0,60,0,0.05,0,"stable",FALSE,TRUE,"2/3","1/3",100,"A",0,10,0.01,TRUE,"[.25,.5,.75,1,1.25,1.5,1.75]",13.5
"423",6,2,"5","2016-05-10 14:11:08.200",14629146682,"state",3.76,"3",3,2.64,-1,345.333333333333,"[[1,2,3,4],[5,6,7,8]]",1000,0,60,0,0.05,0,"stable",FALSE,TRUE,"2/3","1/3",100,"A",0,10,0.01,TRUE,"[.25,.5,.75,1,1.25,1.5,1.75]",13.5
"424",6,2,"5","2016-05-10 14:11:08.200",14629146682,"state",4.31,"4",4,2.84,-1,248,"[[1,2,3,4],[5,6,7,8]]",1000,0,60,0,0.05,0,"stable",FALSE,TRUE,"2/3","1/3",100,"A",0,10,0.01,TRUE,"[.25,.5,.75,1,1.25,1.5,1.75]",13.5
"425",6,2,"5","2016-05-10 14:11:09.400",14629146694,"state",4.55,"1",1,2.96,-1,263.111111111111,"[[1,2,3,4],[5,6,7,8]]",1000,0,60,0,0.05,0,"stable",FALSE,TRUE,"2/3","1/3",100,"A",0,10,0.01,TRUE,"[.25,.5,.75,1,1.25,1.5,1.75]",14.7
"426",6,2,"5","2016-05-10 14:11:09.400",14629146694,"state",5.22,"2",2,3.94999999999999,-1,260,"[[1,2,3,4],[5,6,7,8]]",1000,0,60,0,0.05,0,"stable",FALSE,TRUE,"2/3","1/3",100,"A",0,10,0.01,TRUE,"[.25,.5,.75,1,1.25,1.5,1.75]",14.7
"427",6,2,"5","2016-05-10 14:11:09.400",14629146694,"state",1.12,"3",3,2.54,-1,287.777777777778,"[[1,2,3,4],[5,6,7,8]]",1000,0,60,0,0.05,0,"stable",FALSE,TRUE,"2/3","1/3",100,"A",0,10,0.01,TRUE,"[.25,.5,.75,1,1.25,1.5,1.75]",14.7
"428",6,2,"5","2016-05-10 14:11:09.400",14629146694,"state",9.6,"4",4,2.64,-1,345.333333333333,"[[1,2,3,4],[5,6,7,8]]",1000,0,60,0,0.05,0,"stable",FALSE,TRUE,"2/3","1/3",100,"A",0,10,0.01,TRUE,"[.25,.5,.75,1,1.25,1.5,1.75]",14.7
"429",6,2,"5","2016-05-10 14:11:10.700",14629146707,"state",9.11,"1",1,3.26,-1,289.777777777777,"[[1,2,3,4],[5,6,7,8]]",1000,0,60,0,0.05,0,"stable",FALSE,TRUE,"2/3","1/3",100,"A",0,10,0.01,TRUE,"[.25,.5,.75,1,1.25,1.5,1.75]",16
"430",6,2,"5","2016-05-10 14:11:10.700",14629146707,"state",9.75,"2",2,4.14999999999999,-1,273.333333333333,"[[1,2,3,4],[5,6,7,8]]",1000,0,60,0,0.05,0,"stable",FALSE,TRUE,"2/3","1/3",100,"A",0,10,0.01,TRUE,"[.25,.5,.75,1,1.25,1.5,1.75]",16
"431",6,2,"5","2016-05-10 14:11:10.700",14629146707,"state",0.17,"3",3,2.24,-1,305.333333333333,"[[1,2,3,4],[5,6,7,8]]",1000,0,60,0,0.05,0,"stable",FALSE,TRUE,"2/3","1/3",100,"A",0,10,0.01,TRUE,"[.25,.5,.75,1,1.25,1.5,1.75]",16
"432",6,2,"5","2016-05-10 14:11:10.700",14629146707,"state",5.22,"4",4,2.94,-1,321.111111111111,"[[1,2,3,4],[5,6,7,8]]",1000,0,60,0,0.05,0,"stable",FALSE,TRUE,"2/3","1/3",100,"A",0,10,0.01,TRUE,"[.25,.5,.75,1,1.25,1.5,1.75]",16
"433",6,2,"5","2016-05-10 14:11:11.900",14629146719,"state",3.62,"1",1,3.46,-1,307.555555555555,"[[1,2,3,4],[5,6,7,8]]",1000,0,60,0,0.05,0,"stable",FALSE,TRUE,"2/3","1/3",100,"A",0,10,0.01,TRUE,"[.25,.5,.75,1,1.25,1.5,1.75]",17.2
"434",6,2,"5","2016-05-10 14:11:11.900",14629146719,"state",5.29,"2",2,4.44999999999999,-1,293.333333333333,"[[1,2,3,4],[5,6,7,8]]",1000,0,60,0,0.05,0,"stable",FALSE,TRUE,"2/3","1/3",100,"A",0,10,0.01,TRUE,"[.25,.5,.75,1,1.25,1.5,1.75]",17.2
"435",6,2,"5","2016-05-10 14:11:11.900",14629146719,"state",4.67,"3",3,2.04,-1,265.333333333334,"[[1,2,3,4],[5,6,7,8]]",1000,0,60,0,0.05,0,"stable",FALSE,TRUE,"2/3","1/3",100,"A",0,10,0.01,TRUE,"[.25,.5,.75,1,1.25,1.5,1.75]",17.2
"436",6,2,"5","2016-05-10 14:11:11.900",14629146719,"state",7.57,"4",4,3.24,-1,354.444444444444,"[[1,2,3,4],[5,6,7,8]]",1000,0,60,0,0.05,0,"stable",FALSE,TRUE,"2/3","1/3",100,"A",0,10,0.01,TRUE,"[.25,.5,.75,1,1.25,1.5,1.75]",17.2
"437",6,2,"5","2016-05-10 14:11:13.100",14629146731,"state",5.26,"1",1,3.75999999999999,-1,334.222222222222,"[[1,2,3,4],[5,6,7,8]]",1000,0,60,0,0.05,0,"stable",FALSE,TRUE,"2/3","1/3",100,"A",0,10,0.01,TRUE,"[.25,.5,.75,1,1.25,1.5,1.75]",18.4
"438",6,2,"5","2016-05-10 14:11:13.100",14629146731,"state",0.99,"2",2,4.44999999999999,-1,300,"[[1,2,3,4],[5,6,7,8]]",1000,0,60,0,0.05,0,"stable",FALSE,TRUE,"2/3","1/3",100,"A",0,10,0.01,TRUE,"[.25,.5,.75,1,1.25,1.5,1.75]",18.4
"439",6,2,"5","2016-05-10 14:11:13.100",14629146731,"state",0.89,"3",3,2.14,-1,292,"[[1,2,3,4],[5,6,7,8]]",1000,0,60,0,0.05,0,"stable",FALSE,TRUE,"2/3","1/3",100,"A",0,10,0.01,TRUE,"[.25,.5,.75,1,1.25,1.5,1.75]",18.4
